IQRAccX,IQRAccY,IQRAccZ,IQRGyroX,IQRGyroY,IQRGyroZ,IQRMagX,IQRMagY,IQRMagZ,KurtosisAccX,KurtosisAccY,KurtosisAccZ,KurtosisGyroX,KurtosisGyroY,KurtosisGyroZ,KurtosisMagX,KurtosisMagY,KurtosisMagZ,Label,MADAccX,MADAccY,MADAccZ,MADGyroX,MADGyroY,MADGyroZ,MADMagX,MADMagY,MADMagZ,MaxAccX,MaxAccY,MaxAccZ,MaxGyroX,MaxGyroY,MaxGyroZ,MaxMagX,MaxMagY,MaxMagZ,MedianAccX,MedianAccY,MedianAccZ,MedianGyroX,MedianGyroY,MedianGyroZ,MedianMagX,MedianMagY,MedianMagZ,MinAccX,MinAccY,MinAccZ,MinGyroX,MinGyroY,MinGyroZ,MinMagX,MinMagY,MinMagZ,RMSAccX,RMSAccY,RMSAccZ,RMSGyroX,RMSGyroY,RMSGyroZ,RMSMagX,RMSMagY,RMSMagZ,SkewAccX,SkewAccY,SkewAccZ,SkewGyroX,SkewGyroY,SkewGyroZ,SkewMagX,SkewMagY,SkewMagZ,StdAccX,StdAccY,StdAccZ,StdGyroX,StdGyroY,StdGyroZ,StdMagX,StdMagY,StdMagZ,VarianceAccX,VarianceAccY,VarianceAccZ,VarianceGyroX,VarianceGyroY,VarianceGyroZ,VarianceMagX,VarianceMagY,VarianceMagZ,meanAccX,meanAccY,meanAccZ,meanGyroY,meanGyroZ,meanMagX,meanMagY,meanMagZ
0.2873190000000001,0.545906,0.6081590000000006,0.10040299999999999,0.066314,0.029561000000000004,0.9019779999999997,2.1647449999999964,1.2217680000000044,4.114655288444627,3.8324301853634886,0.08160708174891118,1.7187092196853442,2.058130651439715,8.591087042516099,2.767215215726843,1.663711895621077,1.0981583034887379,1,0.2413883976037711,0.4188796047943876,0.4046807233477599,0.06159619177003374,0.06159619177003375,0.020531075521865533,0.8023665294286071,1.6047315762549994,1.0350846692585636,3.2083939999999997,6.072005,7.513388000000001,0.71257,0.359173,0.099825,-31.749571999999997,63.318752,-56.89949,2.51404,1.575465,6.981847999999999,0.219079,0.041453,-0.12148699999999998,-37.161434,59.530448,-58.993949,-0.138871,0.397458,5.5356760000000005,-0.53008,-0.46988199999999997,-0.169958,-38.965385,52.314640000000004,-61.961101,2.4206002213478466,2.127685129529216,6.846141915350884,0.32146536479325194,0.16135232897092455,0.12280761068068038,36.885941864397225,59.53614985912755,59.0817392255292,-2.0964734354625496,1.8535899693057556,-0.8179454699584394,-1.1683873218377674,-1.0865449423556681,2.6763379561326928,1.5046908713132643,-1.0169327334115377,-0.3695088822527922,0.6745475858808612,1.1512521938926368,0.44165045934346664,0.2637593905052169,0.16133569674612622,0.04782089964724608,1.4395497897491039,2.3220141296696983,0.9033136729605871,0.45501444561769777,1.3253816139426091,0.1950551282382951,0.06956901607968351,0.026029207044558002,0.002286838443071981,2.072303597166689,5.3917496183857265,0.8159755917575464,2.3247130975609758,1.7893189756097563,6.83188143902439,0.0023166829268292687,-0.11311441463414633,-36.85784046341463,59.490851317073165,-59.07483334146341
0.4070349999999996,0.3926695,0.2657695000000002,0.060721,0.0721725,0.02383549999999998,1.4431649999999934,1.8941534999999945,1.2217695000000006,3.154396530713284,3.4204076076619696,3.4768908598546515,1.970742934876629,2.4679412767352717,5.584157129308943,1.535406033591233,2.3668291621624213,0.5764999426278421,1,0.2342896981815656,0.32658465148797694,0.1987917532638872,0.04619788512863451,0.05014605483651497,0.016582905813985138,1.0698175914314914,1.3372686534343654,1.0350861518607783,3.136564,4.089505,7.5181770000000006,0.783145,0.44119899999999995,-0.014959,-33.733921,65.844284,-56.375877,2.8731880000000003,0.450133,7.001002000000001,0.211089,0.040387,-0.12468299999999999,-38.243804,63.318752,-58.993949,0.5219630000000001,0.09098400000000001,5.84215,-0.37295100000000003,-0.256027,-0.159305,-39.867362,56.82451999999999,-63.182868000000006,2.6826353649291663,1.2430996477285503,6.9466320654204115,0.28359688759543983,0.13863591850257018,0.12391371140517554,37.92501628248486,62.96822516663149,59.24237778428023,-1.9326259451551433,2.082510738425857,-1.5787040667710852,-0.2660532683765143,0.6758940423484892,1.973378301947148,1.1985658195287985,-1.3377412525625334,-0.6758586035231333,0.608819302687726,0.947049275930751,0.3039782356343268,0.2132831663248083,0.13413992431393446,0.02575636271734327,1.3349096605521589,1.7434473626736466,1.3642376677146224,0.37066094332516886,0.8969023310409597,0.09240276773935832,0.04548970903753583,0.017993519294948062,0.0006633902204273504,1.78198380183548,3.0396087064136936,1.8611444140114326,2.6126368974358978,0.8052294102564103,6.939977974358976,0.03501997435897435,-0.1212073333333333,-37.90151548717949,62.944084487179495,-59.226667820512816
0.34597999999999995,0.3603457499999998,0.2573895000000004,0.04101324999999997,0.0631845,0.02436800000000003,1.1274702500000018,1.7137555000000049,1.3963090000000022,3.8580038148766196,3.8813651753963496,1.400818001835277,2.7371466653999734,4.702008654627612,2.0420357919663603,4.330169987149729,4.393344797132168,3.205908519630378,1,0.2094398023971938,0.14554261198403926,0.181042039503938,0.028428897539844893,0.04718381560394079,0.018162618477802893,0.8023665294286176,1.2035446050351537,0.7763157258472395,3.342476,5.214837,7.230857,0.9021899999999999,0.398854,0.007678,-31.929969,64.58152,-56.724952,3.0000875000000002,0.782944,6.957905,0.20549699999999999,0.042252,-0.12162049999999999,-38.063407,62.8677635,-57.772181999999994,-0.043098000000000004,0.627313,5.84215,-0.48773500000000003,-0.539391,-0.21363400000000002,-40.047756,51.773452,-62.310176,2.818456210011649,1.7221629783930084,6.843640638022715,0.31115126029265017,0.15707721929299034,0.12295780662441227,37.83538572979509,61.98736867340118,58.116397693548485,-2.1162801583835265,2.217199264378736,-1.5536723439296676,-0.027797789274720694,-1.2811347155120432,0.8709064721109908,2.0229082998075683,-2.165584990920663,-1.6584085512622553,0.7410194596676614,1.1398363126773865,0.3495896737185799,0.2451437235942255,0.15477422765843304,0.039036409910808784,1.612337402655553,2.59594141996986,1.1310261946399203,0.5491098396061528,1.299226819697981,0.12221293997066315,0.060095445217642034,0.02395506154726446,0.0015238412987246901,2.599631900002055,6.738911855915133,1.279220252961659,2.7192987272727276,1.2909757954545453,6.834705863636364,0.026799090909090908,-0.11659665909090909,-37.80101561363636,61.93298768181818,-58.10539097727272
1.640112,1.8627835000000004,0.3854862499999996,0.34581625000000005,0.2519395,0.02197150000000002,2.3451372499999934,2.2549405000000036,2.443534999999997,-0.3187323740248762,0.20243004205261395,-0.5823187513661683,-0.6091875127972903,-0.5574953328099119,4.590296584098958,0.619478015109145,0.5708354510933584,-0.6334249730215431,1,0.9194061137618788,0.8839074275430902,0.3088349377280277,0.2532936934183711,0.19031645768179933,0.01954514504655935,1.4709993735435751,1.8721826382578837,1.9407796777036872,3.141353,5.095121,7.484656,0.558371,0.321888,-0.046119,-31.388782,64.58152,-57.772181999999994,2.4541815,0.4788645,6.950722000000001,0.2153505,0.058630499999999995,-0.12388450000000001,-37.161434,61.965787500000005,-61.00113999999999,-0.368726,-0.330417,6.297071,-0.45817299999999994,-0.36548400000000003,-0.267164,-38.784991999999995,55.200962,-64.40464,2.362534146813574,1.9074995210174552,6.930152417242997,0.32861501050029224,0.18344860756694228,0.13041862989427547,36.584429058958854,61.34486219421652,60.773607522729286,-0.8637203095617055,1.1037249846685009,-0.30645188087924413,-0.6711550571861434,-0.3839196802552742,-1.4595101705147098,0.9893563670039472,-1.1660864680664311,-0.15273354573089204,0.9741973026980432,1.4887553977983619,0.3144240519809289,0.2936351061854223,0.18069002254166075,0.038926342359575705,1.7419583867641797,2.4542846129042597,1.6279376846120683,0.9490603845841427,2.216392634473759,0.09886248446410585,0.08622157558452426,0.03264888424610587,0.0015152601294948981,3.0344190212180635,6.023512961138612,2.6501811049801023,2.152326,1.1925442499999999,6.923015964285713,0.031693964285714284,-0.1244739285714286,-36.54293407142857,61.295747035714285,-60.75179989285714
0.7111137500000004,0.8978712499999999,0.2537982500000009,0.06005525000000006,0.09008250000000001,0.020906249999999987,1.894152499999997,1.894150499999995,2.007190999999999,1.9624547379869561,2.254390365434845,3.676343400159645,1.1786669533422707,1.5454486072118128,4.4213988324633196,0.24627185455123746,2.023696169493121,1.901008204395545,1,0.25203867064040575,0.28398652454587403,0.15974223473177668,0.03928747618817994,0.06771637372802486,0.013622149183629473,1.203545346336261,1.4710001148446876,1.4232373430744105,3.912325,5.353708,7.273955,0.799391,0.5120399999999999,-0.02721,-33.733921,63.499145,-54.281414,3.5771195000000002,0.4405555,6.7639645,0.21828,0.0329305,-0.12561499999999998,-38.514396500000004,60.793216,-56.375877,-0.004789,-0.09098400000000001,5.449481,-0.44459099999999996,-0.420346,-0.21816100000000002,-40.228153000000006,53.577404,-64.230102,3.274225255848758,1.650184452627886,6.6985381661213115,0.3286788882143109,0.17987793058317733,0.1272166038678092,37.9989411982063,60.425633826535325,57.02430674392459,-1.759219848392148,1.805321425069321,-1.5193181810709722,-0.39094739783054927,-0.25634631218629395,-0.13857841841905996,1.0352762523399452,-1.4285719544143658,-1.328118598029543,1.0035232035774877,1.3033300964831203,0.3235448490173553,0.2493884760594309,0.17689736312433976,0.02821817017165111,1.6054421022577476,2.032902206301466,2.069017254169089,1.0070588201184236,1.6986693403986997,0.10468126932566325,0.06219461199124535,0.03129267708034452,0.0007962651278362605,2.577444343701776,4.132691380385368,4.280832398049397,3.116647590909091,1.0121459318181818,6.690719863636361,0.032609704545454546,-0.1240475681818182,-37.965011363636364,60.39142763636362,-56.98675922727272
1.2211049999999999,1.355187,0.5267509999999991,0.398193,0.227213,0.17870099999999997,0.7215810000000005,2.5255309999999938,1.7453849999999989,-0.5455052205609223,-1.0442113270159263,-1.0209995846108857,-1.5717661411786823,-0.6865185919931109,-1.47001109301745,0.22553589082475067,-0.5922419671376851,0.04928370038778329,1,0.6744683664470055,1.1927416239700086,0.681567065869208,0.3174577522308565,0.33291832816543293,0.1579386491329648,0.8023605990197374,3.476906801501788,1.5526255212856095,2.068696,3.1844509999999997,7.441558000000001,-0.008357999999999999,0.081933,-0.07187400000000001,-22.729808,61.695193999999994,-61.262947,1.613774,1.173219,6.747203999999999,-0.22248,-0.16734200000000002,-0.28847,-35.177085,59.350055000000005,-62.48471800000001,-1.039137,0.24900999999999998,5.923557,-0.594795,-0.558034,-0.394998,-35.718269,51.953849,-71.560707,1.5811344572576995,1.7820243490793832,6.662680999977261,0.35640238403748087,0.2750609975616318,0.2697209101204428,33.104872670567076,58.002350328884184,64.23754545284534,-0.9944321932641144,0.5539091329877753,0.14540122025365146,-0.2326317171808616,-0.7518490516560848,0.2311643251754914,1.481915361572952,-0.8154031479890343,-1.35512589268855,1.155407102220754,1.0478672759575995,0.514171327830948,0.22601099197286842,0.229744629699151,0.11908568549141411,5.009145870772597,3.326324260603021,3.794512052233254,1.3349655718621598,1.0980258280228,0.26437215436344014,0.05108096849256,0.05278259487560001,0.01418140048896,25.09154235467816,11.064433086676235,14.39832171454342,1.0793612,1.441383,6.642811599999999,-0.151248,-0.24200819999999998,-32.7237078,57.906892600000006,-64.12537660000001
