IQRAccX,IQRAccY,IQRAccZ,IQRGyroX,IQRGyroY,IQRGyroZ,IQRMagX,IQRMagY,IQRMagZ,KurtosisAccX,KurtosisAccY,KurtosisAccZ,KurtosisGyroX,KurtosisGyroY,KurtosisGyroZ,KurtosisMagX,KurtosisMagY,KurtosisMagZ,Label,MADAccX,MADAccY,MADAccZ,MADGyroX,MADGyroY,MADGyroZ,MADMagX,MADMagY,MADMagZ,MaxAccX,MaxAccY,MaxAccZ,MaxGyroX,MaxGyroY,MaxGyroZ,MaxMagX,MaxMagY,MaxMagZ,MedianAccX,MedianAccY,MedianAccZ,MedianGyroX,MedianGyroY,MedianGyroZ,MedianMagX,MedianMagY,MedianMagZ,MinAccX,MinAccY,MinAccZ,MinGyroX,MinGyroY,MinGyroZ,MinMagX,MinMagY,MinMagZ,RMSAccX,RMSAccY,RMSAccZ,RMSGyroX,RMSGyroY,RMSGyroZ,RMSMagX,RMSMagY,RMSMagZ,SkewAccX,SkewAccY,SkewAccZ,SkewGyroX,SkewGyroY,SkewGyroZ,SkewMagX,SkewMagY,SkewMagZ,StdAccX,StdAccY,StdAccZ,StdGyroX,StdGyroY,StdGyroZ,StdMagX,StdMagY,StdMagZ,VarianceAccX,VarianceAccY,VarianceAccZ,VarianceGyroX,VarianceGyroY,VarianceGyroZ,VarianceMagX,VarianceMagY,VarianceMagZ,meanAccX,meanAccY,meanAccZ,meanGyroY,meanGyroZ,meanMagX,meanMagY,meanMagZ
0.3806980000000002,0.2202775,0.2514035000000012,0.053264,0.048603,0.04500850000000001,0.901977500000001,1.2627680000000012,0.6108819999999895,-1.5977627222652144,-1.18427152401142,-0.7671489521588901,-0.6881605558834449,-0.676244778180294,-1.4071453798313,-1.0116812480703956,-1.2717442766285985,-0.9148530954512077,0,3.4646338203370033,1.1927431065722272,1.022352081406034,0.050540427026637434,0.4015598456778052,0.28468483019079005,6.953816568208016,1.3372731012410306,2.3289397645306344,-3.007271,5.075966,4.8509,0.25667399999999996,-0.593146,-0.16428800000000002,4.690278,52.314640000000004,-70.86255600000001,-7.570850999999999,4.271473,2.5044619999999997,-0.335888,-1.495172,-0.45484300000000005,-5.9530449999999995,50.510684000000005,-73.30609100000001,-9.907711,1.7095470000000001,1.019982,-0.369977,-1.8088970000000002,-0.770699,-15.513997,49.608707,-75.226013,7.476798036751775,4.039480386241355,3.0235726075936062,0.301382239256065,1.4226332465796658,0.5179829801225133,8.620933298872078,50.77280179593905,73.49696264625275,0.2599287733453738,-0.576700367396129,0.4005424277028905,0.9563276803271118,0.8243619622280853,-0.011716972234253355,-0.020752632062048554,0.40813777598863904,0.5352367734739792,2.7706458872909474,1.2897582452690273,1.2659054311607327,0.24165778666949672,0.42829245638577396,0.21973795467201382,6.796475741387485,0.9854288229332453,1.549365362905981,7.67647863276224,1.66347633123944,1.6025165606422405,0.05839848585799999,0.18343442819696007,0.048284768723439994,46.192082503268566,0.9710699650676012,2.400533027772782,-6.9444964,3.8280446000000006,2.7458104,-1.3566322000000002,-0.4690646,-5.3036222,50.763238,-73.48062999999999
0.3806980000000002,0.2202775,0.2514035000000012,0.053264,0.048603,0.04500850000000001,0.901977500000001,1.2627680000000012,0.6108819999999895,-1.3233870173869018,-1.5129453230108725,-1.0238016125763079,-1.0947443596851985,-1.428672217047734,-1.3618321389739083,-0.7435659683953584,-1.4023659376379758,-1.1018784159318333,0,2.3464374359134537,1.352485341304004,0.31593511975245125,0.03356240772142057,0.5581159682420136,0.23315699008662805,1.203545346336261,0.9360913191289366,1.2938550952720917,-2.69122,3.567542,4.803013,0.304612,1.394668,0.811243,-6.313836,52.49503299999999,-71.386169,-4.9083635,2.0399635,4.398372999999999,0.270922,0.9657594999999999,0.5786125,-14.341427,51.412662,-73.0442845,-8.260417,0.809281,4.003309,0.20580700000000002,0.016994,0.32361100000000004,-15.333601000000002,50.510684000000005,-74.527862,5.600428664956505,2.36697976794807,4.409895820131696,0.26561761820848784,1.0025834861577614,0.6012148587167071,13.106622304828074,51.46319474760489,73.00934772395307,-0.3153453555919844,0.14307704109385425,0.025017241532829634,-0.5484781945398718,-0.42429641810648117,-0.07344484473601647,1.0650514222496024,0.13814540780913073,0.1097165394467123,2.0992837538040208,1.0643328599264659,0.2836035192412112,0.0367305088405742,0.5537327394995599,0.18195513856906462,3.669115865215241,0.7478794578193614,1.1269226480076193,4.4069922789855,1.1328044367192502,0.08043095612600004,0.0013491302796874995,0.3066199467936875,0.033107672451687505,13.462411232374185,0.559323683428182,1.2699546545925047,-5.1920910000000005,2.1141875,4.400767,0.83579525,0.57301975,-12.58257275,51.45776024999999,-73.00065000000001
0.3806980000000002,0.2202775,0.2514035000000012,0.053264,0.048603,0.04500850000000001,0.901977500000001,1.2627680000000012,0.6108819999999895,-1.1328453683754325,-1.0066883356985552,-0.8507773552963291,-1.1065210175507092,-1.1719622596834187,-1.468194412969807,-1.2459811373260086,-0.7010748154219546,-0.9662424012846325,0,1.3134373053741133,0.7241651928113133,0.518275481426331,0.43689841085699554,0.3182464966111013,0.27639337728379754,7.75618013243219,0.2674547685084213,0.77630979543837,-5.952289,5.368074,4.5204830000000005,0.556018,-0.9577379999999999,-0.052167,7.035417,50.510684000000005,-71.037094,-9.419270000000001,4.575552500000001,2.164469,-0.1658425,-1.6656170000000001,-0.4487175,-0.9019765,47.804756,-71.90978199999999,-10.353056,3.074312,1.7909540000000002,-0.633368,-1.9258119999999999,-0.6817479999999999,-11.184510000000001,47.443965000000006,-73.65516600000001,8.964727303059043,4.477916735663611,2.8820219497817416,0.44581644530148284,1.5993570841828912,0.47678479078353575,6.87339305835324,48.4067361157209,72.13433063398857,0.6957049346413376,-0.5740024166833457,0.9573534001543338,0.39549366542488756,0.6321283649721064,0.32381436068051417,-0.22298226775035337,1.1041078044471373,-0.624590109426318,1.7813042447559844,0.8402710536450054,1.1090319022619177,0.4339302374226617,0.37943619003727097,0.24696621290421486,6.7103360454031105,1.2326089809498353,0.9589678178364537,3.1730448123856876,0.7060554435936877,1.2299517602346879,0.18829545094968753,0.14397182231,0.060992310316249986,45.02860984223626,1.5193248999181912,0.9196192756460098,-8.78597125,4.39837275,2.66009375,-1.553696,-0.40783749999999996,-1.4882615000000003,48.391040249999996,-72.127956
0.3806980000000002,0.2202775,0.2514035000000012,0.053264,0.048603,0.04500850000000001,0.901977500000001,1.2627680000000012,0.6108819999999895,-1.3202696844889124,-1.717140826144771,-0.8521021938569597,-1.2294891229270766,-1.1518213915155984,-1.0857741887338324,-1.5580909917822776,-1.7892414349710506,-1.0698541806201531,0,2.6623718143647963,1.260189646696484,0.3443328826457068,0.1267454397567161,0.5867420518769197,0.13839424538751463,3.3431797878981326,1.3372708773377031,0.5175401107259492,-1.972923,4.132603,4.7216059999999995,0.633783,1.60293,0.7883399999999999,-10.282533,50.149894,-69.640785,-4.4462589999999995,3.1652959999999997,4.324149,0.349753,1.1047784999999999,0.674088,-15.4237985,48.8871265,-70.9498245,-8.418442,1.676027,3.198817,0.25560900000000003,-0.188339,0.32627399999999995,-17.859134,47.804756,-71.386169,5.40373813748078,3.201533294325861,4.181253148234659,0.4252874891664461,1.1421511980742742,0.641720102460177,15.075424956915725,48.94193037703135,70.7349212524501,-0.35303815707097563,-0.17942524276895497,-0.8465647836229411,0.6061258312908497,-0.6347741386506575,-0.7121860105721437,0.33308615656155205,0.06242664286255735,0.7207008515829922,2.4410298822645924,1.0196916258588917,0.5702812167099556,0.15192809167909005,0.6954180856819154,0.180890238529474,3.128115795129953,0.9745933414615514,0.6801961263798787,5.958626886108689,1.0397710118467498,0.32522066613218736,0.023082145041249995,0.48360631389349995,0.03272127839525,9.785108427741498,0.9498321812211921,0.46266677034219195,-4.820970750000001,3.0348055,4.14218025,0.906037,0.6156975,-14.747316,48.93222575,-70.73165075
0.3806980000000002,0.2202775,0.2514035000000012,0.053264,0.048603,0.04500850000000001,0.901977500000001,1.2627680000000012,0.6108819999999895,-1.4284727871340057,-1.4488150368078083,-0.11947000659019613,-1.20001987712641,-1.599246344233526,-1.4740474958075043,-1.549059554266924,-0.7658174405805735,-1.222751037044699,0,3.3510398035595372,1.6932688742386097,0.8590590143609359,0.46670909366448776,0.844775624587853,0.40096680479040303,13.238995844494411,2.005910393162643,0.5175401107259491,-0.6847770000000001,5.0855440000000005,5.7128559999999995,0.32405300000000004,-0.50233,0.26262399999999997,5.9530449999999995,53.216613,-70.338943,-8.152672500000001,3.8357064999999997,2.9186805000000002,-0.32989599999999997,-1.416341,-0.40064700000000003,-4.058894,48.887126499999994,-70.862556,-10.592489,1.130121,1.8484180000000001,-0.697018,-2.073886,-0.680416,-17.859134,47.083175,-72.60794,7.77552503972437,3.712908280953221,3.4520745233653827,0.4421708214161506,1.4549606545849731,0.484401034503437,10.966342659922661,49.38335812165623,71.24545546297992,0.48228249454138394,-0.4318869725685993,1.009707887353079,0.40387920668819927,0.174341210750116,0.3472565955288685,-0.20988693692246244,0.6968563769510387,-0.6248847849448763,3.846284205175258,1.5261001242094907,1.2577824292035653,0.35756472729442834,0.6047891966180357,0.365675671714704,9.415422940709549,2.1133980156342553,0.821236445406642,14.793902186980665,2.3289815891122227,1.5820166392132216,0.1278525342051389,0.3657699723458889,0.13371869688399998,88.65018915243967,4.466451172486807,0.6744292992641364,-6.75758,3.384775666666666,3.2147786666666662,-1.3233066666666669,-0.317688,-5.622319999999999,49.33811516666666,-71.24072216666666
0.3806980000000002,0.2202775,0.2514035000000012,0.053264,0.048603,0.04500850000000001,0.901977500000001,1.2627680000000012,0.6108819999999895,-1.5685302725940533,-1.3615125832180273,-1.5847154574867386,-1.607463857926164,-0.018208214493248054,-0.7441067657343376,-1.3513276195681063,0.023886409579052525,-0.5886426844882169,0,4.323693575999046,2.4848813484752883,1.6400219568620895,0.48961010883263445,0.09476200339800385,0.1772866080844629,7.488721657418218,0.26745847501396874,0.77630979543837,-1.3839190000000001,5.075966,5.784686,0.6534909999999999,1.486815,0.742266,-6.313836,50.691082,-68.069946,-5.190894,2.786993,3.5723309999999997,0.28224099999999996,1.148056,0.573153,-16.235576000000002,50.510684000000005,-71.560707,-9.002657000000001,1.110966,2.466153,-0.071965,-0.048255,0.16914500000000002,-21.827831,46.722384999999996,-72.08431999999999,5.83637942505893,3.5897919245251804,4.358514175896965,0.4228584952664425,1.11440840979185,0.557168770594871,16.20628625348733,49.66725345302975,70.80845313137398,-0.030335074699437012,-0.10306446402981075,0.12685675599143595,-0.013581912519348616,-1.2502576341887104,-0.7381748499780387,0.34321356881644893,-1.3510062772316944,0.980878660569425,2.9141004161415993,1.46048686208968,1.2806495632750436,0.28540444492306,0.5311473679411393,0.1999662285593245,5.746658707167614,1.4936900148513308,1.4916617527373384,8.491981235356642,2.1330218743365603,1.6400633039165597,0.08145569718183998,0.28211752647079996,0.03998649256424001,33.02408629666536,2.2311098604665687,2.2250547845794286,-5.0568116000000005,3.2792658,4.1661231999999995,0.9796880000000001,0.5200486,-15.153205199999999,49.6447878,-70.79273959999999
0.3806980000000002,0.2202775,0.2514035000000012,0.053264,0.048603,0.04500850000000001,0.901977500000001,1.2627680000000012,0.6108819999999895,-1.5869172747387168,-1.4877275606592928,-1.5144436530249097,-0.7441603735444087,-1.6305600204953488,-0.7663167850787418,-1.3820614265874365,-1.0459317965411148,-0.3072817706130575,0,4.891666625090794,3.003156088600511,1.4909285125647296,0.39524099502253446,0.5709486317442889,0.4663139801732559,12.302904525365474,3.2094512916922597,0.5175512302425809,-1.953768,6.349746,5.775109,-0.069036,-0.728436,0.041844,3.788301,55.200962,-69.98986,-5.669758,3.7782430000000002,2.935441,-0.388886,-1.59158,-0.345119,-7.937392999999999,53.03621999999999,-74.00424100000001,-10.396154,0.12929300000000002,1.929825,-1.2384469999999999,-1.976679,-1.209861,-19.302297,46.361595,-76.098701,6.851587143025505,4.272150730501161,3.9362648097168713,0.6583124943898604,1.5387238859224874,0.6535954019775537,12.033867141933145,51.98478148031092,73.68237572889419,-0.09985313908644221,-0.20494670240349425,0.3391115337973776,-0.7674741958886434,0.27699349269101264,-0.5154901663957213,0.1234302608672888,-0.6498478242671722,0.8536942586581135,3.2392154170036545,2.3604458481137836,1.4475301560501461,0.4113768872333009,0.5131330270038755,0.4176746470345549,8.430927940453278,3.2722727655642876,2.0022523732983357,10.492516517754158,5.5717046018776,2.09534355267456,0.16923094334975997,0.26330550340216,0.17445211077544004,71.08054593711577,10.70776905225375,4.009014566378817,-6.0375268,3.5608380000000004,3.6604422,-1.4506432,-0.5027273999999999,-8.586816200000001,51.881689800000004,-73.65516600000001
0.3806980000000002,0.2202775,0.2514035000000012,0.053264,0.048603,0.04500850000000001,0.901977500000001,1.2627680000000012,0.6108819999999895,-1.5147045656579479,-1.4403037263577518,0.1664131413053891,-0.873526045055653,0.04073596041359506,-1.5811738491766425,-1.274676278606429,-1.5365609435651864,-0.7286195927715449,0,4.806470371206586,1.498028694589152,0.17039250776841303,0.1855773196903462,0.24717351146037972,0.22782703511110033,10.430721887107588,2.94199874708715,1.2938491648631907,-1.178007,5.7368,4.118237000000001,0.647632,1.5898809999999999,0.770496,-4.509882,51.412662,-69.117172,-5.626661,4.726395,4.003309,0.27292,1.402924,0.616829,-14.070835,47.985149,-70.86255600000001,-9.108008,1.513213,1.781377,0.096349,0.082509,0.240519,-21.647436,46.000801,-71.90978199999999,6.414030354868162,4.181196922548351,3.66371399471902,0.37296538839039745,1.3109561614384366,0.5512111642341798,15.858789182203317,48.821914280283096,70.86951837839185,0.15715836620863338,-0.38535139532743357,-1.4415013837524182,0.6209857844647495,-1.3486184448999285,-0.21032460190821892,0.28985825073009125,0.09188483981714385,0.7157453888774097,3.0895152455809374,1.5682995528985653,0.893161634634538,0.1919277407599016,0.5626746517700615,0.2018807779135002,6.414162815013838,2.0492150705657397,0.9934883453073002,9.54510445267704,2.45956348762184,0.79773770558304,0.03683625767319999,0.31660276374456,0.04075584849095999,41.14148461750624,4.199282405433749,0.9870190922614375,-5.620914599999999,3.8759314,3.5531764000000003,1.1840622,0.5129112,-14.503782600000003,48.778889199999995,-70.8625544
0.3806980000000002,0.2202775,0.2514035000000012,0.053264,0.048603,0.04500850000000001,0.901977500000001,1.2627680000000012,0.6108819999999895,-1.0541984552518988,-1.0154638002929501,-0.7654312889767998,-1.476715313335431,-0.778108484435942,-1.176138416362995,-1.1501522325743232,-1.6082299094476014,-0.8428832070226906,0,1.998554462255536,0.8484094826254103,0.2875366155580858,0.5186313059587724,0.17531178192941352,0.18360323483640592,8.558543696656363,1.7384534007508994,0.9056942671440267,-3.5962739999999997,5.396806,3.141353,0.109133,-1.024318,-0.280669,5.77265,54.840171,-72.258865,-9.103219,4.4247105,2.870794,-0.49914249999999993,-1.8417875,-0.7033195000000001,-2.7961275,52.3146375,-73.3933595,-10.678684,2.8492450000000002,1.321667,-0.9755889999999999,-2.057906,-0.847132,-17.678739,51.051871999999996,-76.447784,8.590924116338213,4.372049740906032,2.6516668160676784,0.6248171491578556,1.7370518860469453,0.6721792952527622,9.736751653286968,52.653878404121265,73.88977080518917,0.754418717558197,-0.4608004796031591,-1.0320551687789754,0.16777457383825375,0.97271233082183,0.6423507621327955,-0.4627128865922697,0.2930891702267721,-0.8335812779148822,2.804266266045452,0.9213420947359887,0.7231599935909757,0.41601416149475906,0.39540738238453194,0.2244178532704116,8.69869703383159,1.5745881104013346,1.5580665564803373,7.863909290880502,0.8488712555324996,0.5229603763305,0.17306778256418745,0.15634699804418747,0.0503633728665,75.66733008639049,2.4793277174172452,2.4275713944224964,-8.120349000000001,4.273868,2.551152,-1.69144975,-0.63361,-4.374586,52.6303295,-73.87334200000001
