IQRAccX,IQRAccY,IQRAccZ,IQRGyroX,IQRGyroY,IQRGyroZ,IQRMagX,IQRMagY,IQRMagZ,KurtosisAccX,KurtosisAccY,KurtosisAccZ,KurtosisGyroX,KurtosisGyroY,KurtosisGyroZ,KurtosisMagX,KurtosisMagY,KurtosisMagZ,Label,MADAccX,MADAccY,MADAccZ,MADGyroX,MADGyroY,MADGyroZ,MADMagX,MADMagY,MADMagZ,MaxAccX,MaxAccY,MaxAccZ,MaxGyroX,MaxGyroY,MaxGyroZ,MaxMagX,MaxMagY,MaxMagZ,MedianAccX,MedianAccY,MedianAccZ,MedianGyroX,MedianGyroY,MedianGyroZ,MedianMagX,MedianMagY,MedianMagZ,MinAccX,MinAccY,MinAccZ,MinGyroX,MinGyroY,MinGyroZ,MinMagX,MinMagY,MinMagZ,RMSAccX,RMSAccY,RMSAccZ,RMSGyroX,RMSGyroY,RMSGyroZ,RMSMagX,RMSMagY,RMSMagZ,SkewAccX,SkewAccY,SkewAccZ,SkewGyroX,SkewGyroY,SkewGyroZ,SkewMagX,SkewMagY,SkewMagZ,StdAccX,StdAccY,StdAccZ,StdGyroX,StdGyroY,StdGyroZ,StdMagX,StdMagY,StdMagZ,VarianceAccX,VarianceAccY,VarianceAccZ,VarianceGyroX,VarianceGyroY,VarianceGyroZ,VarianceMagX,VarianceMagY,VarianceMagZ,meanAccX,meanAccY,meanAccZ,meanGyroY,meanGyroZ,meanMagX,meanMagY,meanMagZ
0.4956252499999998,0.5195680000000014,1.1456835,0.11957825000000002,0.10453000000000001,0.06804475000000004,3.292213499999999,3.788303749999997,2.6617092500000012,6.920365236572092,4.793972675384196,2.380976093766658,4.2705046062164005,1.758216055880971,3.3681834093567895,0.8235844736239786,0.723729749584507,4.178268068707852,0,0.31238502874024054,0.28043643353366093,0.3833816598767079,0.08686640528335249,0.07521834095366323,0.050540427026637434,2.005908910560433,2.139639630669638,1.0350831866563408,7.230857,-1.69997,6.4024209999999995,1.007919,0.6907409999999999,0.129653,-11.725695,102.644927,-9.948684,6.428759,-7.120718500000001,-3.629795,0.219345,0.06182649999999999,-0.14079550000000002,-15.063008499999999,83.7936205,-12.043144,2.997693,-7.700145,-5.315399,-1.624922,-0.9591120000000001,-0.314836,-30.847596999999997,81.177886,-53.583263,6.250877589026671,6.731192901453018,3.753029926291917,0.55580394976171,0.3408073867658911,0.16834929206602098,17.665389430053146,86.53226197774336,19.149704039411482,-2.440820014419953,2.3316219201449635,1.9089290994612913,-1.7659004388683532,-0.9082081161376531,1.0300397998565787,-1.4606650369251961,1.4715512030424558,-2.2423020739863597,0.7382637971872104,1.2903584324486161,2.8848740788535907,0.5246967229758376,0.33831096166203994,0.08343332338080947,5.0972424180689355,6.069291633922341,9.831701315862025,0.5450334342372785,1.66502488419125,8.322498450841353,0.2753066511015828,0.11445430678069425,0.006961119450366729,25.981880268561248,36.83630093759972,96.6623507643231,6.20712793478261,-6.606355499999998,-2.400569760869565,0.041174847826086956,-0.14622026086956524,-16.914020913043476,86.31915234782609,-16.433162021739133
1.3551870000000004,2.0255980000000005,3.47177,0.03249100000000005,0.11877900000000002,0.040747,2.164743000000005,1.984351999999987,15.882983999999997,-1.5770144312569776,-1.18851984116796,-1.2885894016028512,-0.4904551170876097,-1.3731765569202303,-0.6294491266599507,-1.6893654528774127,-0.7676102425539928,-1.2935475792294944,0,1.2069419880188554,1.5690245844245128,3.876414725709184,0.04777685649134311,0.07936369675660482,0.025269472212209484,0.5349080544146331,2.407090692672501,15.267481821638237,5.813418,-1.968134,7.441558000000001,-0.504247,-0.36548400000000003,0.028717000000000003,-25.976924,102.825325,-28.624282,4.999348,-4.429499,4.563581,-0.644065,-0.5162220000000001,0.011673000000000001,-28.502458,100.480186,-41.540119,3.783031,-6.158201,0.114928,-0.705585,-0.569752,-0.088197,-28.863248,97.052673,-57.423106999999995,4.81435894128774,4.550166258903558,4.67759135281292,0.6255310666337844,0.49142397197633736,0.04386170617748471,27.735154558230796,100.5361663976326,42.5187656754889,-0.07000621839601465,0.3185846033454431,-0.15294482040479593,0.707861282001984,0.46052370440846313,-0.9385121816237467,0.44161597834257554,-0.6321979163398848,-0.25886221330029113,0.7883132826821075,1.4845902163998523,2.5856868523139456,0.06624346563277016,0.07682466050533514,0.04231356199423537,1.2106658973328033,2.000356321952167,10.542461454583021,0.6214378316530403,2.20400811063016,6.685776498229201,0.0043881967390400015,0.005902028461760001,0.0017904375286399998,1.4657119149646416,4.001425414774002,111.14349352136874,4.7493804,-4.3011632,3.897959,-0.48538180000000003,-0.011550399999999999,-27.708718599999997,100.516264,-41.191041999999996
0.9002660000000002,3.2706459999999997,5.559619999999999,0.03355700000000006,0.2308989999999999,0.08708599999999994,6.313835000000001,7.396202000000002,17.977446,-1.083227068357004,-1.043705195928417,-1.142968278455345,0.3221728992751376,-0.9302433265465035,-0.8724894165103292,-1.3671434158583282,-0.8702505902892566,-1.2156402553457706,0,0.4827753126053248,1.7394170921929244,5.054957468232564,0.03711546393806924,0.20058125414162284,0.06159619177003378,6.151453003983844,3.7443652765157673,13.456084391736885,6.172566000000001,-1.7334900000000002,7.958732,1.038546,0.757854,-0.101247,-17.498344,101.56255300000001,-13.613989000000002,5.846939,-5.822995,2.3608029999999998,0.871031,0.517899,-0.23201,-24.714157,97.95465,-28.798821999999998,4.051196,-7.015368,-3.390362,0.574084,0.213229,-0.319896,-30.486806,85.14658299999999,-52.885107999999995,5.432666820136426,5.546821329052423,4.126508066997971,0.8557520213384768,0.5456052241327973,0.23142154040024498,24.24250074814888,95.79386986780048,33.10849601482524,-0.6860540700578013,0.6846348936313731,0.022742269105422548,-0.8743880376539976,-0.2064499385526837,0.4878620256114055,-0.054229591354274,-0.778461424911049,-0.3557598119051782,0.7785762711785033,1.8813284489699764,3.5540255846139726,0.1248980694727692,0.17156518166574478,0.06769841489929097,4.651140406556559,5.608359252050156,13.580381442998691,0.6061810100422222,3.539396732903777,12.63109785609069,0.015599527758024681,0.029434611560000004,0.004583075379876542,21.63310708150311,31.453693500056588,184.4267601373432,5.376587,-5.218029333333334,2.0968955555555553,0.517929,-0.22129811111111108,-23.792136,95.62955511111113,-30.195127888888887
0.8811119999999999,0.42140100000000036,2.427844,0.09853800000000001,0.08468899999999999,0.068711,4.149092,6.313834999999997,4.537996,2.1640446559864266,2.1249076960199877,0.9128091946673802,0.8772308184050819,2.122116681470575,2.2109380504056233,-0.06599674571632308,-0.2868901426757331,1.8872827070964515,0,0.5111760407030164,0.2626859784726024,0.7454642562823646,0.07265195651343008,0.06396390751298718,0.0525152531816869,2.407090692672522,2.407090692672522,2.0701678559149044,7.120717999999999,-1.369553,8.044928,1.085951,0.669702,0.130185,-12.086486,101.382164,-8.552378,6.522138,-6.90523,-3.625006,0.22733499999999998,0.059562000000000004,-0.13054200000000002,-17.317949,81.177886,-12.392221000000001,2.9881159999999998,-7.733664999999999,-5.8996129999999996,-0.8403430000000001,-0.936475,-0.284475,-31.388782,77.750373,-61.088409,6.282922019753173,6.423586124780756,4.271989706001246,0.46777089520453935,0.2937244096431688,0.14853040849467994,19.859660391619013,85.29156302563597,23.60600076794133,-1.6909679347259834,1.8580187462078341,1.5576525009653142,-0.49100721672506165,-0.7416923255534417,0.643096399357718,-1.150352089426539,1.187980501829358,-1.8266836230757169,0.9388003981589957,1.626248478477879,3.864182883845345,0.4231600705730545,0.28970453664694246,0.07021993944421626,5.1670572785038456,7.72653723640899,14.390671357153902,0.881346187583489,2.6446841137516164,14.931909359803328,0.17906444532739246,0.08392871855381963,0.004930839895549399,26.69848091933957,59.69937766561467,207.0914221096097,6.212387859649122,-6.214320122807017,-1.8215341578947366,0.048428403508771936,-0.13088331578947368,-19.175704157894735,84.9408697017544,-18.71234485964912
0.7925210000000007,0.9625184999999989,4.9730110000000005,0.41585849999999996,0.1897525,0.059256,9.921741499999996,14.612019000000004,15.184832499999999,1.3229972859871584,1.1798911426565022,-0.27563378210736067,0.18167872576747746,0.5714502181147614,2.998547952726617,-1.1720851112899096,-1.2892360201337756,0.6075175802976367,0,0.5111760407030164,0.46147773173649087,2.271890713764774,0.27678700817281077,0.1563581951680378,0.049750200044173985,6.6863625410007,7.48872907042932,5.692958267910984,7.714511,-1.862784,7.7815520000000005,0.909114,0.60978,0.120331,-11.906089999999999,100.840972,-9.425069,7.001002000000001,-6.364112,-2.806147,0.259826,0.077939,-0.129743,-20.38467,83.703422,-14.486679999999998,4.041618,-6.981847999999999,-5.822995,-1.032093,-0.9636399999999999,-0.26823,-32.471153,77.93077,-56.550415,6.696691224437992,5.886780965422354,3.905769472921634,0.47497541647615016,0.35037885541459407,0.14677231090383253,22.319761094545836,86.88722428810617,24.776717856389677,-1.489430289182936,1.5483650091314998,0.9324692300379747,-0.7411506867406789,-0.81305110087965,1.040396039471417,-0.40970181889475316,0.5185718606032458,-1.3270496141739077,0.9195387190803448,1.3649028770159046,3.742314127726154,0.4346881822704203,0.3484723196309887,0.06855621781385092,5.962283243060064,7.925661879130606,13.250827410332361,0.8455514558879212,1.8629598636862936,14.004915030578767,0.18895381580556214,0.12143295754900195,0.004699955000940171,35.548821470474834,62.816116222304096,175.58442705841543,6.633258769230769,-5.726362743589743,-1.118087717948718,0.03650184615384614,-0.1297773333333333,-21.508670666666667,86.52498846153847,-20.935647128205126
0.6440737500000013,0.6093557499999998,3.4909239999999997,0.1635205,0.11018975,0.0644495,6.629528000000002,9.921744000000004,9.59960725,4.607079711970311,2.2465076612250865,0.535401111116359,0.49912042355583797,0.8314081142951073,2.3239101314589306,-0.6333350541898972,-0.8780686321426097,2.049667007808001,0,0.37273138684007096,0.2768870838225608,1.3276361868207416,0.12753566673917965,0.09377681422380708,0.05014605483651501,3.2094535155955803,2.674547685084255,2.9758658295644813,7.345785,-1.45096,7.882113,0.8851459999999999,0.688611,0.11180899999999999,-13.168857999999998,100.119392,-10.123223,6.795091000000001,-6.7591755,-3.1102264999999996,0.23039749999999998,0.0471785,-0.14066250000000002,-16.866961,83.70342199999999,-13.003105000000001,3.141353,-7.29311,-5.660181,-0.763642,-0.684003,-0.318298,-31.208387,79.19354200000001,-60.739334,6.566325839705309,6.2534204558774755,3.749993443410314,0.4076757586126787,0.2787863609000006,0.1471917433167207,20.618796422640603,87.62025085062449,23.5068636641474,-2.1380160305649736,1.8643297912777572,1.3418704432765,-0.7836226724914452,-0.34485356567863046,0.463969909411351,-0.9234574371913572,0.8427420240785013,-1.7651465016095862,0.8562549570592699,1.4986955798239225,3.475608721903167,0.36336367217534077,0.277340961514864,0.07080734937717274,5.722458187235865,6.567525112849763,13.055149894039557,0.7331725514885721,2.246088440983763,12.079855987769365,0.13203315825674852,0.07691800893398927,0.005013680725821006,32.746527704662775,43.132386107912296,170.43693875584106,6.510258249999999,-6.071176076923077,-1.4080464615384611,0.028351826923076924,-0.1290415769230769,-19.80879194230769,87.37377165384615,-19.5482915
