IQRAccX,IQRAccY,IQRAccZ,IQRGyroX,IQRGyroY,IQRGyroZ,IQRMagX,IQRMagY,IQRMagZ,KurtosisAccX,KurtosisAccY,KurtosisAccZ,KurtosisGyroX,KurtosisGyroY,KurtosisGyroZ,KurtosisMagX,KurtosisMagY,KurtosisMagZ,Label,MADAccX,MADAccY,MADAccZ,MADGyroX,MADGyroY,MADGyroZ,MADMagX,MADMagY,MADMagZ,MaxAccX,MaxAccY,MaxAccZ,MaxGyroX,MaxGyroY,MaxGyroZ,MaxMagX,MaxMagY,MaxMagZ,MedianAccX,MedianAccY,MedianAccZ,MedianGyroX,MedianGyroY,MedianGyroZ,MedianMagX,MedianMagY,MedianMagZ,MinAccX,MinAccY,MinAccZ,MinGyroX,MinGyroY,MinGyroZ,MinMagX,MinMagY,MinMagZ,RMSAccX,RMSAccY,RMSAccZ,RMSGyroX,RMSGyroY,RMSGyroZ,RMSMagX,RMSMagY,RMSMagZ,SkewAccX,SkewAccY,SkewAccZ,SkewGyroX,SkewGyroY,SkewGyroZ,SkewMagX,SkewMagY,SkewMagZ,StdAccX,StdAccY,StdAccZ,StdGyroX,StdGyroY,StdGyroZ,StdMagX,StdMagY,StdMagZ,VarianceAccX,VarianceAccY,VarianceAccZ,VarianceGyroX,VarianceGyroY,VarianceGyroZ,VarianceMagX,VarianceMagY,VarianceMagZ,meanAccX,meanAccY,meanAccZ,meanGyroY,meanGyroZ,meanMagX,meanMagY,meanMagZ
2.687628750000001,1.6820125,3.2167737499999998,0.33955775,0.45088000000000017,0.4960215,1.127471749999998,3.743206749999999,14.268505750000003,-1.3541107640738224,-1.1358036950572254,-1.038902030228652,-1.008990100720261,-1.0968719235347129,-1.9484688921125608,-0.7352067352336387,-1.1057683906260105,-1.173813175417642,0,2.573626210769489,1.1536943293412267,3.688272504180823,0.21065034710860372,0.5206053908127128,0.3749071055957301,0.5349080544146331,3.2094564808000214,14.232397893680798,7.829439,1.5946200000000001,9.155895,0.8151470000000001,1.868718,0.397648,-37.341827,83.88381899999999,-22.864519,5.016108000000001,-0.8954774999999999,3.897959,0.630987,1.263772,0.125602,-40.6791415,80.5465045,-38.22389,2.437422,-1.915459,-0.5506939999999999,0.056934000000000005,0.649238,-0.18426199999999998,-41.310522999999996,74.864051,-56.89949,5.457999049237527,1.4483484172427228,5.36369227062909,0.6090969751035133,1.3348039585774385,0.28846827476691433,40.03302615380302,80.0290085295743,40.96327165277326,0.07021051849991475,0.627531167158999,0.17085621147790056,-0.7703555179784927,-0.01565070752738802,-0.023140536065039866,1.052296236534494,-0.46620016310033424,-0.18086081022268896,2.009096981415329,1.3486969708119203,3.457875177872415,0.2938744691891208,0.43661735788788797,0.2640524640876316,1.5590112138094716,3.317448380666482,12.363532488233881,4.036470680732187,1.8189835190772499,11.956900745746186,0.0863622036411875,0.19063471720900005,0.06972370379074999,2.430515964783682,11.005463758386664,152.85693558761466,5.07476925,-0.5279484999999999,4.10027975,1.2613750000000001,0.1161475,-40.002658249999996,79.96021975000001,-39.05294725
3.1293809999999995,1.6281400000000001,2.8037529999999995,0.6104054999999999,0.38390049999999976,0.202803,0.901977500000001,1.2627674999999954,14.923026,-1.5,-1.5,-1.4999999999999996,-1.4999999999999998,-1.5,-1.4999999999999998,-1.5000000000000082,-1.5000000000000002,-1.4999999999999991,0,4.479884237116393,2.0376024981854264,3.990008742486647,0.7304662522399621,0.5168544071998932,0.10779259429644981,0.2674569924117645,1.8721767078490141,14.491172026199862,6.570024,1.7909540000000002,6.766359,-0.228029,-1.470404,0.511367,-38.424198,80.997489,-31.067819,3.5483879999999997,0.416612,3.8500730000000005,-0.7207210000000001,-1.8190169999999999,0.178466,-38.604595,79.734725,-51.139724,0.311262,-1.4653260000000001,1.1588530000000001,-1.44884,-2.238205,0.105761,-40.228153000000006,78.471954,-60.91387099999999,4.314825480895838,1.3574807641284155,4.54421304143409,0.9434993959160758,1.8690882261618007,0.3186072352003325,39.094066220031564,79.74138858357237,49.2983448958738,-0.042137594927508126,-0.18811034205351185,0.049108686023083443,-0.23090286501772692,-0.11199737702658877,0.618265937376144,-0.6809714475384792,-3.3946130742669702e-06,0.39333987124684655,2.5556336598237235,1.3347436710722984,2.2898692990899425,0.5014736265078044,0.31389452912191157,0.17658026820117814,0.811222486196539,1.0310453462579745,12.424000697097613,6.531263403224,1.7815406674675558,5.243501406914665,0.25147579808288884,0.0985297754126666,0.031180591118000006,0.6580819221108939,1.0630545060402266,154.35579332148197,3.4765580000000003,0.24741333333333326,3.9250950000000002,-1.842542,0.265198,-39.08564866666667,79.73472266666667,-47.70713800000001
2.1860175,0.8188584999999999,2.9881159999999993,0.1086585,0.17257549999999977,0.077499,3.1569179999999974,1.3529664999999937,11.955875500000005,-1.4999999999999998,-1.5,-1.5,-1.5000000000000004,-1.5000000000000038,-1.5000000000000002,-1.5,-1.4999999999999887,-1.5000000000000002,0,3.0954510419069203,0.7383640742579414,3.826716416742658,0.06593873366803667,0.08726151877458412,0.11055616483174423,4.011816338518641,0.26745699241175397,10.350836314370074,7.317053,1.4940579999999999,6.598756,0.25347800000000004,1.90547,0.143845,-38.243804,75.946426,-24.435363,5.229203,0.35436,4.017675,0.20900300000000002,1.619176,0.063416,-41.851711,75.766029,-31.416896,2.945018,-0.14365899999999998,0.622524,0.036161,1.560319,-0.011153,-44.55764,73.240493,-48.347114000000005,5.4637276542772515,0.8903965830357091,4.474849319017606,0.19082362573329334,1.701679780064099,0.09098967430428576,41.63146862806042,74.99448999201067,36.154998508023674,-0.05493190269241316,0.43766490343234893,-0.16495549690966743,-0.5896022548941547,0.6271380319248857,0.04626343369126399,0.17280081097244362,-0.695812999926139,-0.45943142839645223,1.7854756222222692,0.6854885871206512,2.4473200389901786,0.09373666487559712,0.1507601530341784,0.06329274120746829,2.5863653112381915,1.2352664384385537,10.039621066574256,3.187923197549999,0.46989460307266656,5.989375373242889,0.008786562342000002,0.02272862374288889,0.004005971089555555,6.689285523176227,1.5258831739326688,100.7939911604016,5.1637580000000005,0.568253,3.7463183333333334,1.6949883333333335,0.06536933333333333,-41.551051666666666,74.984316,-34.733124333333336
1.604197,0.7135085,2.4972794999999994,0.15606350000000008,0.2617924999999999,0.06524849999999999,4.239290000000004,1.7137564999999881,9.163260000000008,-1.5,-1.5,-1.4999999999999993,-1.5,-1.4999999999999996,-1.5000000000000022,-1.500000000000001,-1.4999999999999998,-1.4999999999999982,0,2.215093705376043,0.5892721125627993,1.2992369413252662,0.21835024173041268,0.12437698271265336,0.0446174311637076,4.279271848328181,2.407090692672501,7.245580823992174,3.299378,1.431806,10.582911,-0.189412,-1.058141,0.409632,-33.733921,79.734725,-49.568881,1.585042,1.034348,6.464674,-0.35426399999999997,-1.497835,0.379538,-36.620246,78.11116700000001,-63.008331000000005,0.09098400000000001,0.004789,5.5883519999999995,-0.5015390000000001,-1.581726,0.27913499999999997,-42.212501,76.30721199999999,-67.895401,2.113964002918372,1.0197985325970027,7.85323061412947,0.3709992165135483,1.3982166262996112,0.360445935424903,37.68693444599317,78.06358814910756,60.65451128027913,0.08384530753069698,-0.4825694105878717,0.6221858536718532,0.06883633369358508,0.6369760308558369,-0.555967870341055,-0.3675745237918748,-0.0643518279516131,0.5020677029510625,1.3108499908878462,0.6013265072167994,2.1774969279308345,0.12749264539049565,0.2296155641603301,0.055793147980334974,3.519635505229515,1.3999222036542702,7.748574096767027,1.7183276986106666,0.3615935682815555,4.741492871148221,0.016254374628666673,0.05272330730466667,0.003112875361555557,12.387834089672225,1.959782176284228,60.04040053308895,1.658468,0.8236476666666667,7.5453123333333325,-1.379234,0.3561016666666666,-37.52222266666667,78.05103466666667,-60.15753766666668
1.9657394999999998,1.5443385000000003,3.543599,0.2551345,0.18562500000000015,0.30254,2.254940000000005,0.5411875000000066,12.304952999999998,-1.4999999999999996,-1.5,-1.4999999999999993,-1.5000000000000002,-1.5000000000000002,-1.4999999999999996,-1.5000000000000002,-1.5000000000000002,-1.4999999999999998,0,2.0021030706655276,1.427031322151575,3.4504334562881533,0.2870540285359621,0.2534908795134325,0.4315677145803586,2.9419987470871605,0.26745699241175397,13.45608735694132,5.904401999999999,3.5819080000000003,9.620393,0.580519,1.811725,0.265287,-38.784991999999995,79.013145,-32.813201,3.323321,1.455749,4.8604769999999995,0.263865,1.6407479999999999,-0.048705,-40.76934,78.832748,-41.889194,1.972923,0.49323100000000003,2.533195,0.07025,1.440475,-0.33979299999999996,-43.294872,77.93077,-57.423106999999995,4.074262739464814,2.250373812712457,6.392528843632046,0.37038813429788303,1.638024185897347,0.2504719892809041,40.99130245134142,78.59364722591648,45.198908362073986,0.3613627465692574,0.4237154450256009,0.3915896839609747,0.2850821361371085,-0.0962800071115158,0.04631951003159749,-0.14568362752399558,-0.6309028182766,-0.30825423847488925,1.6310215277006272,1.29043139229286,2.9496029360988008,0.2103254029941858,0.15171939433558113,0.24708185917671538,1.84556424622595,0.4734792064797211,10.161602975889481,2.660231223822888,1.6652131782148893,8.700157480642666,0.04423677514466667,0.023018774617555565,0.061049445134222204,3.4061073869475593,0.22418255896866635,103.25817503960597,3.733548666666666,1.8436293333333333,5.671354999999999,1.6309826666666665,-0.04107033333333332,-40.949734666666664,78.592221,-44.041833999999994
1.6137740000000003,0.356754,0.30886749999999985,0.2708475000000001,0.3123935000000002,0.10932449999999999,1.0823724999999982,0.36079050000000734,9.774144999999997,-2.0,-2.0,-2.0,-2.0,-2.0,-1.9999999999999998,-1.9999999999999998,-2.0,-2.0,0,2.392584912566659,0.5289242718607476,0.4579276407242788,0.40155910437669606,0.4631552961467299,0.1620847462370157,1.6047278697494574,0.5349087957157562,14.491169060995437,4.98977,1.120543,4.649776,-0.119104,-1.627267,0.506839,-38.965385,80.45630600000001,-38.747505,3.375996,0.763789,4.3409085,-0.3899515,-1.9396605,0.3975145,-40.0477575,80.0955155,-48.521649999999994,1.7622220000000002,0.407035,4.032041,-0.660799,-2.2520540000000002,0.28819,-41.13013,79.734725,-58.295795,3.7418732628313323,0.8429988452168842,4.351883010597654,0.474784730808079,1.9646558360441913,0.4122737246181231,40.0623814944589,80.09632808684572,49.49630722794908,-2.1133531445435803e-16,-2.2923184641381677e-16,0.0,0.0,-1.0811299289351487e-15,7.467930771391237e-16,9.806138070989176e-15,0.0,-1.0957623226622123e-15,1.613774,0.35675400000000007,0.30886749999999985,0.2708475,0.3123935000000001,0.10932450000000002,1.0823725000000017,0.36079050000000734,9.774145,2.604266523076,0.12727341651600005,0.0953991325562499,0.07335836825625001,0.09758969884225006,0.011951846300250004,1.1715302287562537,0.1301697848902553,95.53391048102502,3.375996,0.763789,4.3409085,-1.9396605,0.3975145,-40.0477575,80.0955155,-48.521649999999994
4.348091250000001,2.12855375,3.6968354999999997,0.10040274999999999,0.5548775000000001,0.1777025,4.825576750000003,1.9392489999999896,16.362967500000003,-1.6500415152953547,-1.9500652189365102,-0.9999999999999996,-1.2741141279551742,-1.210051200522352,-1.2069846448579247,-1.9868600557925282,-1.685388328352522,-1.1893452878276294,0,3.056403005977031,1.6151728023788268,3.216145982009916,0.07205965692713706,0.4047177884032223,0.16030784747813673,3.610636039008778,1.471002338748015,17.208264464546385,6.622699000000001,1.5946200000000001,10.075315,0.532848,1.711589,0.308431,-37.341827,82.079864,-23.213596,4.33612,0.2753475,6.500589,0.470529,1.348062,0.074868,-40.047757499999996,80.907291,-43.198232499999996,0.24900999999999998,-0.900266,-0.12929300000000002,0.340565,0.586653,-0.089185,-42.573291,79.19354200000001,-61.961101,4.697634754728517,1.1745031995266126,6.8412489904248845,0.4596577354671082,1.320492487587491,0.1730199063951891,40.07974014310629,80.78059577177447,45.13823658825752,-0.24907208064786496,0.020386155326571325,-0.5631398865491244,-0.4969473978543406,-0.5320350142646304,0.3058394000161866,0.005921048639615201,-0.17647022974733081,0.05861283240751346,2.639483923359013,1.1325076500506244,3.7271723208069543,0.07427092741906148,0.429790269669696,0.14637846746960428,2.484532727221093,1.1786237206237602,14.059478134718239,6.966875381670689,1.2825735774231877,13.891813508989497,0.005516170659687499,0.18471967590275,0.02142665573875,6.1729028726326804,1.3891538748169954,197.66892542062027,3.8859872500000003,0.31126225,5.7368,1.2485914999999999,0.09224550000000001,-40.002658249999996,80.771997,-42.892790500000004
2.0160204999999998,1.4389885,3.4382485000000003,0.3701850000000001,0.19707700000000017,0.07816499999999998,3.1569174999999987,0.8117790000000014,12.30495049999999,-1.4999999999999998,-1.5,-1.4999999999999998,-1.4999999999999998,-1.5000000000000007,-1.5000000000000002,-1.5,-1.499999999999965,-1.5000000000000018,0,2.825663398807676,0.6318702395049023,4.565080491000599,0.44064865316870555,0.2590195031862394,0.10463465157103286,2.674541754675396,0.26745699241175397,8.280671423659596,4.750338,2.212355,11.0091,-0.116174,-1.357751,0.39605,-35.537876000000004,82.260261,-44.332733000000005,2.844457,1.7861650000000002,7.211703,-0.559331,-1.577199,0.325475,-37.341827,82.079864,-63.357406000000005,0.7182970000000001,-0.665622,4.132603,-0.8565440000000001,-1.7519049999999998,0.23972,-41.851711,80.636703,-68.942634,3.2234865864620357,1.6860162810734265,7.964239878478004,0.5944227423231719,1.5705854102453858,0.3267288664550471,38.33587696452166,81.66217501543952,59.81259313655189,-0.0667885394887447,-0.6476881430340133,0.12708390162038494,0.23578724869374038,0.13793701065496794,-0.11824304555098375,-0.47033096729645785,-0.6745548569466967,0.5609757521445329,1.6468924729603798,1.2682292564393345,2.8124187252773885,0.30420596657856663,0.16125789794818315,0.06392167042560763,2.655346918349255,0.7265747135164818,10.534494565730842,2.7122548174935552,1.608405446888667,7.90969908629089,0.09254127010200001,0.026004109650666657,0.004085979950000001,7.050867256786884,0.5279108143215576,110.97557575541263,2.771030666666667,1.1109660000000001,7.451135333333333,-1.562285,0.32041499999999995,-38.24380466666667,81.65894266666668,-58.877590999999995
2.059118,0.8092815,2.4422105,0.6266514999999999,0.3925559999999999,0.19867450000000003,2.3451385000000045,1.8941535000000016,10.1232215,-1.5,-1.5000000000000002,-1.4999999999999998,-1.4999999999999998,-1.4999999999999998,-1.5000000000000004,-1.5000000000000042,-1.5,-1.5000000000000002,0,2.9392588981873558,0.6389689389271076,2.6481736742192767,0.15201565327003502,0.5484427300673737,0.21045241971243317,1.8721826382578837,1.8721885686667745,14.232395669777464,7.762397,2.212355,6.033696,0.6002270000000001,1.6908159999999999,0.256498,-37.883014,79.19354200000001,-24.78444,5.779897,1.0247700000000002,2.935441,0.49769399999999997,1.275623,0.001097,-41.310522999999996,77.93077,-35.431278000000006,3.644161,0.593792,1.149275,-0.653076,0.9057040000000001,-0.140851,-42.573291,75.405235,-45.030883,5.970536712617468,1.448822181197426,3.930357672889411,0.5872194453356713,1.3299589617228795,0.16894913594925545,40.63728651878061,77.52584831891853,36.04360484462569,-0.045533162508815665,0.5027017257716794,0.31493120270884517,-0.6898760851451122,0.07048240288058558,0.33286725062727923,0.4979235014554492,-0.3818001997646454,0.0632456114207395,1.6816507189000005,0.684417542608961,2.0178960861314605,0.5681894264335521,0.32069822200144615,0.16440638447524544,1.9816126794898337,1.5749493849524183,8.26926054538076,2.8279491403768886,0.46842737263088896,4.071904614424667,0.3228392243108889,0.10284734959488884,0.027029459256222226,3.9267888115148786,2.480465565162001,68.38066996739092,5.728818333333333,1.2769723333333334,3.372804,1.2907143333333333,0.038914666666666674,-40.58894266666666,77.509849,-35.08220033333334
