IQRAccX,IQRAccY,IQRAccZ,IQRGyroX,IQRGyroY,IQRGyroZ,IQRMagX,IQRMagY,IQRMagZ,KurtosisAccX,KurtosisAccY,KurtosisAccZ,KurtosisGyroX,KurtosisGyroY,KurtosisGyroZ,KurtosisMagX,KurtosisMagY,KurtosisMagZ,Label,MADAccX,MADAccY,MADAccZ,MADGyroX,MADGyroY,MADGyroZ,MADMagX,MADMagY,MADMagZ,MaxAccX,MaxAccY,MaxAccZ,MaxGyroX,MaxGyroY,MaxGyroZ,MaxMagX,MaxMagY,MaxMagZ,MedianAccX,MedianAccY,MedianAccZ,MedianGyroX,MedianGyroY,MedianGyroZ,MedianMagX,MedianMagY,MedianMagZ,MinAccX,MinAccY,MinAccZ,MinGyroX,MinGyroY,MinGyroZ,MinMagX,MinMagY,MinMagZ,RMSAccX,RMSAccY,RMSAccZ,RMSGyroX,RMSGyroY,RMSGyroZ,RMSMagX,RMSMagY,RMSMagZ,SkewAccX,SkewAccY,SkewAccZ,SkewGyroX,SkewGyroY,SkewGyroZ,SkewMagX,SkewMagY,SkewMagZ,StdAccX,StdAccY,StdAccZ,StdGyroX,StdGyroY,StdGyroZ,StdMagX,StdMagY,StdMagZ,VarianceAccX,VarianceAccY,VarianceAccZ,VarianceGyroX,VarianceGyroY,VarianceGyroZ,VarianceMagX,VarianceMagY,VarianceMagZ,meanAccX,meanAccY,meanAccZ,meanGyroY,meanGyroZ,meanMagX,meanMagY,meanMagZ
0.7542114999999998,0.6009754999999992,4.326543000000001,0.12277349999999987,0.9160079999999999,0.1897535,3.698103500000002,5.50205600000001,8.2905705,-2.0,-2.0,-2.0,-1.9999999999999998,-2.0,-2.0,-2.0,-2.0,-2.0,0,1.118195643122438,0.8910076095675129,6.414542250259883,0.1820242634736975,1.3580754929688794,0.28132896006920266,5.4828164533633315,8.157360431942053,12.291618215977099,4.309782,-3.4430370000000003,4.376824,1.514782,2.394857,0.5130859999999999,-18.580717,103.186111,0.872692,3.5555705,-4.0440125,0.05028100000000002,1.3920085000000002,1.478849,0.32333249999999997,-22.278820500000002,97.684055,-7.4178785,2.801359,-4.644988,-4.276262,1.2692350000000001,0.562841,0.133579,-25.976924,92.181999,-15.708449,3.634682457547358,4.08842373681551,4.326835160924206,1.3974122499729635,1.739558858120357,0.37490038185963476,22.583662510052097,97.83888399542464,11.124678901264184,8.410351373542935e-16,0.0,0.0,-2.694971609859621e-15,-2.166724474683828e-16,0.0,1.4751708354540197e-15,0.0,-2.992596717931999e-16,0.7542115,0.6009754999999997,4.326543,0.12277349999999998,0.916008,0.18975349999999996,3.6981035,5.502055999999996,8.2905705,0.5688349867322501,0.3611715516002496,18.718974330849,0.015073332302249994,0.839070656064,0.036006390762249985,13.675969496712252,30.272620227135956,68.73355921547025,3.5555705,-4.0440125,0.05028100000000002,1.478849,0.32333249999999997,-22.278820500000002,97.684055,-7.4178785
0.6560449999999998,3.639373,7.264378000000001,0.8221300000000002,0.05859000000000014,0.384033,5.772649000000003,10.102135000000004,25.831671,-0.4163663955207153,-1.3357048256078952,-1.4389726747033798,-1.23635580672665,0.013853088093263466,-1.4648053426666248,-1.347593120990279,-1.5222462833525467,-1.50827058685252,0,0.9158567640507763,3.3581399855839615,5.473837073026951,0.6293868807889059,0.06278079094261983,0.295739112331968,2.674546202482056,9.628364253292304,19.14904710745452,4.573158,-1.570676,6.852554,-0.496201,-0.089377,0.723212,-11.725695,110.582321,3.6653050000000005,3.648949,-5.104698,-0.095773,-1.640312,-0.794327,0.405492,-19.663087,102.644927,-9.250531,1.87715,-8.059294,-3.7878199999999995,-2.064827,-0.96344,0.07712000000000001,-21.467041000000002,95.06832800000001,-37.525737,3.714663298843921,5.686926163874347,4.188077033610175,1.535572831918825,0.7469490156852742,0.46562045583779926,18.108130454310274,103.46217309882311,21.35895445521086,-0.9411105761529885,0.21766233072264377,0.31766429921420997,0.5110893318174277,1.28476972726899,-0.0097053986435687,0.5573583182167902,-0.04628988805880256,-0.32461822421234193,0.9340360847788697,2.375657948972924,4.145356394798382,0.575937978146814,0.30478059975175587,0.23769532021813136,3.7536093874410756,5.890506422472598,15.630527275563962,0.8724234076690399,5.64375069051824,17.183979639895842,0.33170455467184007,0.09289121398504,0.0564990652536,14.089583433485766,34.698065913190916,244.31338291214894,3.5953164,-5.1669506,0.5966654000000001,-0.6819396,0.40037900000000004,-17.7148188,103.2943522,-14.556495199999997
0.4070350000000005,1.9489795,6.1007370000000005,0.5962910000000001,0.5638000000000001,0.34488450000000004,4.419685000000001,3.6981010000000083,15.2721025,-1.5,-1.4999999999999996,-1.5000000000000002,-1.5000000000000002,-1.5000000000000007,-1.4999999999999998,-1.5,-1.5000000000000044,-1.5000000000000002,0,0.35498241438123307,2.7049706826080087,8.377598026296628,0.7865353029394067,0.46552523579301136,0.4047177884032223,5.081635412552358,1.0698175914314705,13.714857782954843,4.917941000000001,-0.8380129999999999,9.582084,2.028514,1.6664720000000002,0.21028000000000002,-21.827831,103.186111,-4.014381,4.343303,-2.662488,3.031214,1.4980040000000001,1.35248,-0.062698,-25.255342000000002,102.46453000000001,-13.264911999999999,4.103871,-4.735972,-2.61939,0.835932,0.538872,-0.47948900000000005,-30.667201000000002,95.789909,-34.558586,4.468116001699561,3.17387979834865,5.996270954211236,1.5338043487611668,1.277590715574697,0.30444398429760444,26.17099999920985,100.53533388425103,21.49704639789926,0.455639361279095,-0.07804424537794791,0.09006588587705595,-0.13411053522576397,-0.48267563002081626,-0.24869424834511053,-0.26665584254235086,-0.6822802754655384,-0.43992327789159713,0.34160511292166357,1.5924170757953668,4.985748479353616,0.48785608306002154,0.4751643825185367,0.2836298447558406,3.6388415660894373,3.3295820334624957,12.788629217143823,0.11669405317422253,2.535792143284667,24.857687899376895,0.23800355777866664,0.22578119041422226,0.08044588883622224,13.241167943100228,11.086116517556249,163.54903725358466,4.455038333333333,-2.745491,3.3313026666666663,1.1859413333333333,-0.11063566666666669,-25.916791333333336,100.48018333333333,-17.279293
1.1205430000000005,2.6912190000000002,2.217144,0.635174,0.963014,0.07883100000000004,7.576601999999999,9.380561999999998,18.501061,-0.5058296083041149,-0.7881340076473902,-0.4172902268581056,-0.6648227388028154,-1.1439165912147826,0.13684604584383875,-1.1677451247116957,-1.562788544471734,-1.2741208101095103,0,0.1987917532638859,0.7454642562823646,2.0305023161610025,0.8339163046384088,1.1280779282098872,0.06949401378801312,6.418909996395598,7.488718692213775,9.315751645111511,4.405556,-2.260241,4.127814,-0.378754,-0.136249,0.8403930000000001,-7.215812,110.76271799999999,2.443536,4.271473,-7.5947949999999995,-1.3839190000000001,-0.9737129999999999,-0.9599780000000001,0.219867,-16.235576000000002,101.74295,-3.839843,1.45096,-8.097603,-3.4765580000000003,-2.046451,-1.991436,0.148227,-22.008226,96.691886,-31.067819,3.720966380764599,6.6383404208327255,2.78961615721192,1.1439972436917845,1.1221489539278642,0.42024591742169254,16.683200844530944,103.2550962625975,16.462210517994908,-1.0538031260154608,0.8952534303462284,0.9794998183241576,-0.7786026501397717,-0.37554963955890847,1.4153077060578183,0.40307589284767287,0.24118063175464327,-0.5875938109329959,1.1321253898549226,2.2394760276257837,2.6710952736888736,0.6043791398331347,0.6837523678465471,0.25683803637654606,5.348469507295656,5.396926648196373,12.701784802586614,1.2817078983541603,5.01525287831056,7.134749961123039,0.3652741446654399,0.46751730053575996,0.06596577692976001,28.60612607047144,29.126817246012138,161.33533717122026,3.5445568,-6.2491848,-0.8044926,-0.8897758,0.3326272,-15.8026284,103.11395680000001,-10.472298599999998
1.884333,1.0223760000000002,0.6919592499999982,0.20047225,0.17763524999999997,0.123106,2.029446749999998,2.751031250000011,10.995913250000001,-0.5601652213506374,1.4395627053546889,1.8775750999686052,1.174951631300269,1.7886458800857392,1.0917301472018686,3.3750962000635,0.4589696266666694,0.6950177300113687,0,1.018801249092713,0.8058113556833078,0.5360244538851704,0.16958671346265403,0.13799839059517366,0.09594734387169927,1.2035438637340383,2.1396388893685305,4.140332746625374,5.147796,3.165296,13.920598000000002,1.7813689999999998,1.606017,0.951981,-9.560952,108.056785,5.4106879999999995,1.9106705,1.8819385,7.1638165,-0.121755,0.0244745,0.2294545,-24.9847495,96.9624745,-52.623301999999995,0.900266,-7.034522999999999,-5.8613040000000005,-2.233674,-1.327499,-0.578561,-27.420084999999997,93.26437299999999,-56.550415,2.692878470424515,3.0403658081149803,7.2868912969263775,0.8657471366411102,0.617613138669649,0.39038652867170476,23.760768998887166,98.15905804906987,47.0867747710854,0.8423364946475228,-1.6932874144671122,-1.4451074531015906,-0.41371363266852035,0.43598718259471975,-0.29328826183074025,2.09325893432803,1.2879567080732757,1.5227904635837881,1.2627415576501204,2.954697215645681,4.098531559955239,0.8561694313493363,0.6145166545142282,0.3292109831390055,4.308763509683826,4.108601411762645,19.24441891208163,1.5945162414166523,8.730235636144341,16.797960947949125,0.733026095177046,0.37763071867535936,0.10837987141935057,18.565442982382876,16.880605560737997,370.34765926368516,2.3784613125,0.71665096875,6.0250164999999996,0.06176787500000002,0.20981365625,-23.366829062500003,98.07303437499999,-42.97460528125
2.20397525,1.734687,0.8858989999999993,0.12583675,0.24807725000000003,0.16065749999999998,1.9392507499999994,2.0294512500000224,13.526719750000005,-0.4729510759688669,1.5327245382541728,0.6369453365511739,3.4748993549903746,3.690262609756327,2.285349108297514,3.3600905629263034,0.5247204753417596,-0.01017899003172662,0,0.6389696802282165,0.4437280179765418,0.7135149197746783,0.07245402911725954,0.1920933564406783,0.11312329057308665,1.738453400750894,1.6047256458461299,2.45831904712855,5.526098999999999,1.977711,12.60851,1.673776,2.229206,0.8446540000000001,1.082372,107.154808,5.5852260000000005,0.981673,1.427017,7.348179999999999,-0.111102,0.0781385,0.25368999999999997,-21.4670405,99.3076125,-53.670532,0.421401,-8.408864999999999,-5.267512,-3.118389,-2.316346,-0.8331629999999999,-28.682853,92.542793,-56.026798,2.4502515408963688,3.1126998161476744,7.330734923903445,0.870705172288666,0.7655080597240632,0.3856724910859105,20.50258039970679,99.84915774302128,46.92443465459244,1.0442108812320159,-1.7455756211178464,-1.3501017385897158,-0.8303215636262874,-0.0909275146944909,-1.00375025779024,2.0213112388349286,0.3010658983806465,1.3198847789727617,1.6100585456978822,3.1106342613474727,4.643958821361834,0.8549357930696329,0.7596584563269873,0.3319331929652729,6.304449911862952,3.265567960706682,21.657866413337196,2.592288520574779,9.676045507868738,21.566353534504398,0.730915210271602,0.5770809702691012,0.11017964459212111,39.74608869118878,10.663934105993999,469.06317757795944,1.8470095,-0.11337829411764702,5.672153117647058,0.09445432352941178,0.19637623529411766,-19.509221264705882,99.79574323529413,-41.6273875
