IQRAccX,IQRAccY,IQRAccZ,IQRGyroX,IQRGyroY,IQRGyroZ,IQRMagX,IQRMagY,IQRMagZ,KurtosisAccX,KurtosisAccY,KurtosisAccZ,KurtosisGyroX,KurtosisGyroY,KurtosisGyroZ,KurtosisMagX,KurtosisMagY,KurtosisMagZ,Label,MADAccX,MADAccY,MADAccZ,MADGyroX,MADGyroY,MADGyroZ,MADMagX,MADMagY,MADMagZ,MaxAccX,MaxAccY,MaxAccZ,MaxGyroX,MaxGyroY,MaxGyroZ,MaxMagX,MaxMagY,MaxMagZ,MedianAccX,MedianAccY,MedianAccZ,MedianGyroX,MedianGyroY,MedianGyroZ,MedianMagX,MedianMagY,MedianMagZ,MinAccX,MinAccY,MinAccZ,MinGyroX,MinGyroY,MinGyroZ,MinMagX,MinMagY,MinMagZ,RMSAccX,RMSAccY,RMSAccZ,RMSGyroX,RMSGyroY,RMSGyroZ,RMSMagX,RMSMagY,RMSMagZ,SkewAccX,SkewAccY,SkewAccZ,SkewGyroX,SkewGyroY,SkewGyroZ,SkewMagX,SkewMagY,SkewMagZ,StdAccX,StdAccY,StdAccZ,StdGyroX,StdGyroY,StdGyroZ,StdMagX,StdMagY,StdMagZ,VarianceAccX,VarianceAccY,VarianceAccZ,VarianceGyroX,VarianceGyroY,VarianceGyroZ,VarianceMagX,VarianceMagY,VarianceMagZ,meanAccX,meanAccY,meanAccZ,meanGyroY,meanGyroZ,meanMagX,meanMagY,meanMagZ
3.323321000000001,2.375169,2.566716,0.11771299999999998,0.5052089999999999,0.42344899999999996,3.9686960000000013,9.200161000000001,13.788524000000002,-1.4740632514360195,-0.6305076694823422,-0.5844238691680106,0.05765226595896511,-1.5495094122295947,-1.6320814457718051,-1.1269547933055202,-0.47925869062893334,-0.42500503407008283,0,1.8388122275237568,1.4199311401271517,1.3773330131850499,0.11213513619445271,0.5018504727486166,0.32851203437203425,2.9419987470871605,4.546724392933291,4.916649955074829,8.471117,2.643333,7.250012,0.38766,0.8457399999999999,-0.10684,-33.192737,71.436538,-20.595520999999998,5.664969999999999,1.685604,6.1151029999999995,0.227069,0.378614,-0.34493,-37.341827,52.855823,-49.045265,4.051196,-2.729529,0.74224,-0.049105,-0.034714999999999996,-0.691679,-40.408546,49.789103999999995,-52.361495,6.245328522990617,1.8750775072333985,5.41799362768428,0.249953853029068,0.5346379534776494,0.45394627562427897,37.31470100431635,56.75829232541861,44.2154421421479,0.37176549285268373,-0.7646454974839277,-0.8315565148732427,-0.6957456459990538,-0.10196451390703505,-0.13905944166226203,0.23296664717936483,0.9166143804695942,0.9281560360061133,1.6339307066604207,1.6757332955867232,2.008983067372353,0.11799652131889714,0.3152895380931347,0.22305218697765505,2.284707019770542,6.887584517232287,10.11107072715264,2.669729554167822,2.8080820779379403,4.036012964988829,0.013923179043360946,0.09940749283098226,0.04975227811551479,5.219886166188792,47.43882048201791,102.23375124948303,6.027802153846154,0.8413284615384615,5.031763307692307,0.4317756923076923,-0.3953668461538461,-37.24469123076923,56.33884030769231,-43.04383315384616
1.0199819999999997,2.3129165,2.0184144999999996,0.1984085,0.09614149999999999,0.14328050000000003,0.6313825000000008,8.388382000000007,10.035953499999998,-1.267785383370574,-1.1552459626335656,-0.8151027772521915,-1.3965052508021019,-0.02813450650431637,-0.7395325299002113,0.363705209713324,-1.3410633565984738,-1.3947095108101883,0,0.8803588191330952,1.845912409548181,1.760714673061757,0.21203287367736012,0.08094266811931326,0.11766524246947858,0.5349095370168636,7.75618161503442,10.09206588835654,7.953942999999999,1.072657,5.9379230000000005,0.193512,-0.275202,0.534193,-39.506572,70.534561,-31.591434000000003,7.2691669999999995,-1.6520830000000002,3.797397,0.029459,-0.421412,0.33631700000000003,-40.228153000000006,62.416774,-40.492889,6.009752,-3.912325,0.952941,-0.145513,-0.693591,0.24177300000000002,-41.851711,55.381358999999996,-47.998034999999994,7.125697088259024,2.1923937894359735,4.154988686715387,0.12008900925622984,0.47072025725386285,0.3601084967510288,40.337443130208385,62.508803969731474,41.36568531914728,-0.29883816874302743,0.11943719416624139,-0.3451511693801893,0.1630749970914339,-0.6272793351906808,0.6342234312328902,-1.1171706786625357,0.18299278079451886,0.2751047664162081,0.6563204024826436,1.6295393214680307,1.6070958590976634,0.12008062196792654,0.12003539284217596,0.09934875257600452,0.7076408444472098,5.250281271277554,6.077670343924404,0.43075647071497924,2.65539840021049,2.5827571003288567,0.014419355772204082,0.014408495534775507,0.009870174638408166,0.5007555647299602,27.56545342752785,36.93807680941818,7.095407142857143,-1.466694285714286,3.8316019999999997,-0.4551582857142857,0.34613285714285713,-40.33123557142857,62.287921142857144,-40.916767285714286
0.4214020000000005,1.714336,1.838841,0.08975,0.23702500000000004,0.04740500000000003,2.164746000000008,7.215812999999997,7.679686000000007,-0.13679014457881156,-1.317974776243169,-1.375968667209111,-1.264148882636973,-1.7424485961865261,-0.30742416751660295,-0.712301007277969,-1.0998447271032963,-1.185650574089409,0,0.1206941988018849,1.4057322586805234,1.7465172742173467,0.09713120174317603,0.12477283750499454,0.0390902900931187,1.6047315762550098,7.488718692213775,9.315751645111522,7.987464,-1.120543,4.467808,0.277403,0.899803,-0.6067229999999999,-34.094711,79.19354200000001,-23.213596,7.906057000000001,-2.288974,2.786993,0.165549,0.815645,-0.657323,-39.145782000000004,70.534561,-30.544203999999997,6.4167879999999995,-4.223587,1.3551870000000001,0.08432100000000001,0.6023229999999999,-0.812854,-42.753688000000004,64.040336,-41.714656,7.5865896475701255,2.725126780833141,2.967878264632261,0.1922646097382459,0.7657757707658294,0.683111400541815,38.96112588312984,70.59912758495885,32.91748086226425,-1.256271972902448,-0.32555148490166497,0.19967447110531092,0.08053746898109922,-0.26718350863253637,-1.0482348217828439,0.40626862511682343,0.4009342488852181,-0.11203167617463201,0.5954011503130981,1.1326244668017729,1.1563068785666544,0.06775652905632047,0.12432128799911947,0.07135361536068094,2.8445322716267745,5.4267516360339725,6.398679924103828,0.35450252979416047,1.2828381827980002,1.3370455974205597,0.00459094722976,0.015455782649760006,0.005091338425040002,8.091363844326178,29.449633319197392,40.94310477112937,7.563189799999999,-2.478604,2.7333597999999997,0.7556168,-0.6793745999999998,-38.857148200000005,70.3902492,-32.2895872
1.0487134999999999,2.0016545,1.8986990000000001,0.083758,0.15513100000000002,0.1857585,1.082374999999999,7.666800000000002,8.465106999999996,-1.121730005625446,-1.2218351585261304,-1.2241445492467158,-0.25576503327675937,-1.0357723242018366,-1.726761219296523,-0.14791241330612248,-1.3699552973046598,-1.2192759503047135,0,0.8945577005797237,1.860111290994809,2.08020062512753,0.073047811305771,0.15280439765027998,0.14925208273474044,1.3372745838432454,6.686358093194027,8.280665493250726,7.958732,0.339994,5.971443,0.186854,-0.30130100000000004,0.394908,-39.686965,69.993377,-32.464126,6.785513000000001,-1.7622220000000002,3.9506339999999995,0.075532,-0.472812,0.270003,-40.588943,62.777565,-42.238273,5.708068,-3.7543,2.035175,-0.094913,-0.667492,0.155219,-42.934082000000004,57.36570699999999,-49.219802,6.970922710865798,2.1708998091221132,4.261994500331975,0.10689931508466942,0.49339133612015174,0.28547728324909794,40.80860251074587,62.81506214080694,42.11305511880848,-0.1586254848561011,-0.003552086313147636,-0.12882842465702213,-0.5931225878413708,-0.016421842146595537,0.03684957019128196,-0.9068674572686817,0.269563463578575,0.3021400909662984,0.7364774782966024,1.353589370991899,1.32796646028826,0.08307433854232545,0.117159621216666,0.09543701417828046,1.0493484711566008,4.568479614998053,5.7789987583576075,0.5423990760381224,1.8322041852622448,1.7634949196505307,0.006901345724244898,0.013726376843632654,0.009108223675265306,1.1011322139186954,20.871005992652766,33.39682664909877,6.931909142857142,-1.6972335714285713,4.049827428571429,-0.47927928571428574,0.26905214285714285,-40.79510885714286,62.648711285714285,-41.71465671428571
0.32682575000000025,1.7047589999999992,1.7179274999999998,0.07570124999999997,0.12250649999999996,0.059722,4.645176499999998,7.8471945000000005,7.374243500000002,0.13327987039606048,-1.2208621236391577,-0.9728979742518469,0.28415599520785717,-0.14600180805368934,0.3213433210629657,-1.0613622635505073,-1.3611305670307625,-1.0371950616656367,0,0.3301347425001897,1.5015787856013643,1.686169433515295,0.07363862828984548,0.09397325901775908,0.04363075938729214,3.343179046597019,6.820086589399925,7.892512078133764,7.973097999999999,-2.116582,4.644988,0.357033,0.709117,-0.32522199999999996,-33.192737,80.636703,-23.388134,7.3553625,-4.039224,2.461365,0.25143699999999997,0.49366450000000006,-0.45731700000000003,-40.0477575,73.9620775,-31.940511,6.584389999999999,-5.717645,0.100562,0.050765,0.294191,-0.536148,-42.753688000000004,65.844284,-43.110960999999996,7.364423348997598,4.068360786518371,2.80768642018108,0.252178073611932,0.501017923655307,0.4665885478389927,39.10117632634997,74.05425108167883,32.866657665248546,-0.49110926711538555,0.07525998775396246,-0.042246242828774844,-0.8558604872189631,0.2540552016758716,0.8885689777604424,0.602111066733145,-0.09890011437984762,-0.2438229893532689,0.37706954921729974,1.2102127538413376,1.4245335296303794,0.08619707328186599,0.11430168828580081,0.06279434536992562,3.2558721501325003,5.19400684303611,6.574791050655391,0.14218144494693763,1.4646149095602343,2.0292957770411872,0.007429935442359375,0.013064875944984374,0.003943129810437499,10.60070345800843,26.97770708550594,43.22787735977822,7.35476375,-3.8841916249999997,2.41946425,0.487805375,-0.46234375,-38.965385749999996,73.87187825000001,-32.202318375
0.8140699999999992,1.819686,1.623351,0.107327,0.059122999999999926,0.056726,0.5411840000000012,4.149093999999991,7.854225,-1.047644190738761,-1.4197900687629676,-1.3801460303999065,-1.1077885478348541,-0.8694817805156676,-0.5294576851863395,-0.6362067181772062,-1.5103222098629991,-1.3242602599316473,0,0.9442545269440318,1.7252182107462954,1.703917664673026,0.1117422466065487,0.0667304432527185,0.060805964787570284,0.8023605990197374,3.2094498090900343,8.280671423659607,8.337036,-0.450133,5.037657,0.09817000000000001,-0.38545799999999997,0.390913,-40.047756,67.828636,-32.464126,7.374517,-1.992077,3.888382,-0.023805,-0.49944399999999994,0.303027,-41.13013,62.416774,-39.445659,6.072005,-3.160507,1.896304,-0.1045,-0.5942529999999999,0.152556,-41.851711,60.252033,-46.776268,7.25510386058736,2.276108150889012,3.715408403202264,0.0787733846041923,0.49424928841587623,0.30621055684936793,41.17101425125073,63.886279324708596,39.203418349934935,-0.06390082190691275,0.21050365773935942,-0.19730049486909224,0.4415571493021845,-2.896526522148552e-05,-0.7590437821175383,0.7618286125766234,0.2548790045899563,-0.18971994482029458,0.765780253383854,1.0510642886450665,1.131848291706022,0.07495395298821804,0.06885510687988217,0.08002049878624852,0.6290603396681125,2.823403298261402,5.235684268176568,0.5864193964726396,1.10473613886496,1.2810805554378402,0.005618095068560001,0.004741025743439997,0.006403280226000001,0.3957169109433611,7.971606184633364,27.412389756031608,7.2145764,-2.0188938,3.5388104,-0.48942959999999996,0.29557,-41.16620820000001,63.8238598,-38.852228000000004
0.8248452500000001,1.1025859999999996,1.9298247499999999,0.14401275000000002,0.08036225000000008,0.051932000000000034,3.3824122499999945,5.186363,7.810589749999998,-0.4731562857002758,-1.3765067249671672,-1.5275036514494529,-0.9793518089284579,-0.5162472801338844,-0.08977108784260857,-1.2399200021750039,-1.2820277503435336,-1.1404675346198907,0,0.6602687436992681,1.0649487257459183,1.7500658826273403,0.1226000839537745,0.07699523971254213,0.04520973075000058,2.407087727468066,4.54672439293328,6.728043678470657,8.389711,-1.795743,4.127814,0.395383,0.723232,-0.298058,-36.439849,74.683654,-24.435363,7.779158,-2.6553050000000002,2.8181190000000003,0.17327199999999998,0.572628,-0.45185749999999997,-41.03993200000001,68.640411,-33.947700999999995,6.182144,-3.692047,1.297723,0.054759,0.459309,-0.534284,-43.294872,64.58152,-41.540119,7.645693867017085,2.7725102562434283,2.9840042907297684,0.2295128633283256,0.5729045162526358,0.4462082077248244,40.38914718744088,69.27019083630398,34.14079705078831,-0.8535466430020133,-0.11618198430796908,-0.07074754280110233,0.4805153820809688,0.5562611691391885,0.844071913616883,0.4246513310257231,0.2697614684959377,0.21307703563251112,0.746527684832697,0.6886134694340504,1.080769295574993,0.11369825124046054,0.08511217030288128,0.07280645006835285,2.3903802132846743,3.5022550654257842,5.728311841176724,0.5573035842216666,0.47418851028599995,1.1680622702576666,0.012927292335138887,0.007244081533666665,0.005300779171555556,5.713917564062885,12.265790543300563,32.81355654976547,7.609161,-2.6856329999999997,2.781406,0.566547,-0.4402283333333333,-40.31834933333334,69.18159833333334,-33.65680416666667
1.2929350000000008,2.4577737500000003,3.1317749999999998,0.13702124999999996,0.14620975000000003,0.22643924999999998,2.3451385000000045,10.19233599999999,16.144794999999988,-0.8467460704257634,-1.2859097268154216,-1.42891846832033,-0.4888428597185124,-0.41802659978399737,-1.7393358030300932,-0.8574025819383819,-1.2123815006247214,-1.5324219843069093,0,0.5715223988028508,2.0766497928142083,2.662371814364796,0.08232593598917906,0.06080596478757025,0.10641080902880257,2.005908169259326,8.02363786614505,13.197317672228888,8.260417,0.15323699999999998,5.305821,0.39271999999999996,-0.073331,0.286515,-36.079059,75.044448,-24.78444,7.860565,-1.78856,2.966567,0.1787315,-0.47161300000000006,0.21167950000000002,-39.2359785,63.679544,-37.3511995,5.880458999999999,-4.439076,0.421401,0.03372,-0.657904,-0.000312,-42.392897999999995,56.283336,-48.870727,7.518481792584916,2.522832337925313,3.445171880070253,0.22644726393357018,0.4365378866364293,0.203621228014419,39.31661719860325,64.73444733378878,37.83147658613139,-0.7204326581818633,-0.110662328895733,-0.038459093616639184,0.2456827301927059,0.7384491607100466,-0.2589970861945362,0.08010772021539132,0.2590724169669371,0.048405151167293374,0.7887507172713636,1.508378378959739,1.7782572195606126,0.09750853658916228,0.17037620602654585,0.11574777948284797,1.8713352218696242,6.005863698779404,8.582761099818384,0.6221276939960906,2.2752053341132097,3.1621987389194404,0.00950791470776,0.029028051580000002,0.01339754845521,3.5018955126098357,36.070398768316224,73.66378809655568,7.476994100000001,-2.0222457,2.9507643999999997,-0.40191699999999997,0.16752329999999999,-39.272057399999994,64.4552424,-36.8450381
3.1054379999999995,3.6250055,2.6864314999999994,0.07137400000000005,0.48669999999999997,0.35873350000000004,5.321662500000002,16.415970000000016,14.050334500000005,-1.5891558105416863,-0.8358881659656161,-0.5447889438098281,0.7341036749493788,-1.1175552948813674,-1.3989166916490956,-1.481786155493014,-0.8696728642234546,-0.5921835181329445,0,1.5051273940113576,1.7536159736395518,1.135944615581276,0.0576465394599349,0.39603122200499785,0.21400769983240966,3.476906801501788,9.09345471627543,4.140335711829793,8.217319,2.58587,6.8669199999999995,0.522418,0.852398,-0.11456300000000001,-33.553527,78.652351,-21.642751,5.4111709999999995,1.403074,5.9379230000000005,0.227069,0.30697399999999997,-0.44000600000000006,-36.079059,53.397009999999995,-48.870727,4.103871,-5.032868,0.483653,-0.051769,0.0033689999999999996,-0.698869,-41.310522999999996,46.000801,-52.361495,6.149267559328213,2.4313083175821637,5.240278503531342,0.26132116751755274,0.41574430776019056,0.4123220234431617,36.86588174916228,58.39803437396975,44.42756677350261,0.29286222727966515,-0.7466535217661078,-0.985661621057404,0.08022247733235947,0.3963357600245025,0.04507215034813314,-0.3139837423986694,0.7040799973396844,0.9707393447085255,1.4681131572598838,2.431285273860534,2.116854897678964,0.12355990041284932,0.2602462290246193,0.18532943196664778,2.756772046269061,10.421325421702367,10.321370995590836,2.1553562425195842,5.911148082891092,4.481074657827418,0.015267048990033241,0.06772809972153461,0.03434699835308033,7.599792115090506,108.60402354502003,106.53069922862379,5.971443315789474,0.01058547368421053,4.793687947368421,0.32421478947368426,-0.3683238421052632,-36.7626637368421,57.46065084210526,-43.21201210526315
