IQRAccX,IQRAccY,IQRAccZ,IQRGyroX,IQRGyroY,IQRGyroZ,IQRMagX,IQRMagY,IQRMagZ,KurtosisAccX,KurtosisAccY,KurtosisAccZ,KurtosisGyroX,KurtosisGyroY,KurtosisGyroZ,KurtosisMagX,KurtosisMagY,KurtosisMagZ,Label,MADAccX,MADAccY,MADAccZ,MADGyroX,MADGyroY,MADGyroZ,MADMagX,MADMagY,MADMagZ,MaxAccX,MaxAccY,MaxAccZ,MaxGyroX,MaxGyroY,MaxGyroZ,MaxMagX,MaxMagY,MaxMagZ,MedianAccX,MedianAccY,MedianAccZ,MedianGyroX,MedianGyroY,MedianGyroZ,MedianMagX,MedianMagY,MedianMagZ,MinAccX,MinAccY,MinAccZ,MinGyroX,MinGyroY,MinGyroZ,MinMagX,MinMagY,MinMagZ,RMSAccX,RMSAccY,RMSAccZ,RMSGyroX,RMSGyroY,RMSGyroZ,RMSMagX,RMSMagY,RMSMagZ,SkewAccX,SkewAccY,SkewAccZ,SkewGyroX,SkewGyroY,SkewGyroZ,SkewMagX,SkewMagY,SkewMagZ,StdAccX,StdAccY,StdAccZ,StdGyroX,StdGyroY,StdGyroZ,StdMagX,StdMagY,StdMagZ,VarianceAccX,VarianceAccY,VarianceAccZ,VarianceGyroX,VarianceGyroY,VarianceGyroZ,VarianceMagX,VarianceMagY,VarianceMagZ,meanAccX,meanAccY,meanAccZ,meanGyroY,meanGyroZ,meanMagX,meanMagY,meanMagZ
0.7853385000000008,0.5794264999999998,0.35435950000000016,0.13395900000000005,0.014115000000000322,0.06524849999999999,0.8117790000000014,0.09019849999999963,3.4034975000000003,-2.0,-1.9999999999999998,-2.0,-1.9999999999999998,-2.0,-2.0,-2.0,-2.0000000000000004,-2.0,0,1.1643446023778623,0.8590590143609362,0.5253741808485358,0.19860791058879196,0.02092693031420672,0.09673757085416278,1.203545346336261,0.13372849620588223,5.04603294417827,8.035351,-1.575465,1.230682,-0.11175999999999998,1.5688600000000001,-0.065367,-31.929969,50.149894,-29.322437,7.2500125,-2.1548914999999997,0.8763225000000001,-0.245719,1.554745,-0.1306155,-32.741748,50.059695500000004,-32.7259345,6.464674,-2.734318,0.5219630000000001,-0.379678,1.54063,-0.195864,-33.553527,49.969497,-36.129432,7.292423315314224,2.2314328234734067,0.9452575200687376,0.27986218151440184,1.5548090713171183,0.14600608066960774,32.751809831524504,50.059776760610134,32.90244039780023,-1.6044921774080766e-15,-1.212757873971459e-15,-5.457905989479796e-16,-2.706112409857039e-16,0.0,-3.903001128270276e-16,0.0,-1.1819587342880282e-13,0.0,0.7853385000000004,0.5794265000000001,0.35435950000000005,0.133959,0.0141150000000001,0.06524850000000001,0.8117790000000014,0.09019850000000318,3.4034975000000003,0.6167565595822506,0.3357350689022501,0.12557065524025002,0.017945013681000002,0.0001992332250000028,0.004257366752250001,0.6589851448410022,0.008135769402250574,11.583795232506253,7.2500125,-2.1548914999999997,0.8763225000000001,1.554745,-0.1306155,-32.741748,50.059695500000004,-32.7259345
1.7861655000000005,0.2945019999999998,1.8292634999999997,0.12863249999999996,0.40041250000000006,0.1308965,3.607906500000002,0.7215805000000017,2.7926140000000004,-2.0,-2.0,-1.9999999999999998,-2.0,-2.0,-2.0,-1.9999999999999998,-2.0,-1.9999999999999998,0,2.648172932918168,0.4366293185543367,2.712070123331322,0.1907108298719218,0.5936524608173743,0.19406744129461853,5.349090181060782,1.069816850130384,4.140335711829798,5.966655,-1.4365940000000001,4.405556,-0.06275700000000001,-1.409931,0.133042,-20.925855,50.510684000000005,-45.030883,4.1804895,-1.731096,2.5762925,-0.1913895,-1.8103435,0.0021454999999999946,-24.533761499999997,49.7891035,-47.823497,2.394324,-2.025598,0.7470289999999999,-0.320022,-2.210756,-0.128751,-28.141668,49.067523,-50.616111,4.546083990975145,1.7559683337748435,3.1596658047946304,0.23059978483619623,1.8540964802697026,0.13091408206338995,24.797629778904767,49.794332064520084,47.90496381651911,0.0,-1.0866395129765705e-15,-3.6275333931764253e-16,0.0,7.565983797986499e-16,0.0,-1.4373018568970448e-15,0.0,3.833498853318043e-15,1.7861655,0.29450199999999993,1.8292635,0.12863249999999998,0.40041249999999995,0.1308965,3.6079065000000003,0.7215805000000017,2.792613999999997,3.1903871933902503,0.08673142800399997,3.3462049524322497,0.016546320056249994,0.16033017015624995,0.01713389371225,13.016989312742252,0.5206784179802525,7.798692952995982,4.1804895,-1.731096,2.5762925,-1.8103435,0.0021454999999999946,-24.533761499999997,49.7891035,-47.823497
1.1061779999999999,1.07984,0.9242090000000001,0.1645855,0.1334264999999999,0.0312925,0.901977500000001,0.0,2.7926140000000004,-1.9999999999999998,-2.0,-2.0,-2.0,-2.0,-2.0,-2.0,-3.0,-2.0,0,1.6400219568620902,1.6009731796310893,1.3702343137628439,0.24401482743385375,0.1978184249074377,0.04639432992258655,1.337273842542138,0.0,4.140335711829803,8.078449,-1.484481,1.862784,0.21954200000000001,1.608542,-0.170297,-31.388782,51.232265000000005,-29.671512,6.972271000000001,-2.564321,0.938575,0.05495650000000001,1.4751154999999998,-0.2015895,-32.2907595,51.232265000000005,-32.464126,5.866093,-3.644161,0.014366,-0.10962899999999999,1.341689,-0.232882,-33.192737,51.232265000000005,-35.25674,7.059475381721011,2.782408420171453,1.3172263686648549,0.17351830941575014,1.481137525431889,0.2040037917944174,32.303354508430644,51.232265000000005,32.58401709269243,-1.2303436675955679e-15,2.645167951052769e-16,-1.4063701812653517e-16,0.0,2.464777672861256e-15,0.0,0.0,0.0,0.0,1.1061780000000003,1.0798400000000001,0.924209,0.1645855,0.1334265,0.0312925,0.901977500000001,0.0,2.7926140000000004,1.2236297676840007,1.1660544256,0.854162275681,0.027088386810249998,0.017802630902250004,0.00097922055625,0.8135634105062518,0.0,7.798692952996002,6.972271000000001,-2.564321,0.938575,1.4751154999999998,-0.2015895,-32.2907595,51.232265000000005,-32.464126
0.0,0.0,0.0,0.0,0.0,0.0,0.0,0.0,0.0,-3.0,-3.0,-3.0,-3.0,-3.0,-3.0,-3.0,-3.0,-3.0,0,0.0,0.0,0.0,0.0,0.0,0.0,0.0,0.0,0.0,5.1238529999999995,-2.6720650000000004,3.189239,-0.309636,-1.600883,-0.081879,-29.404434000000002,51.051871999999996,-41.714656,5.1238529999999995,-2.6720650000000004,3.189239,-0.309636,-1.600883,-0.081879,-29.404434000000002,51.051871999999996,-41.714656,5.1238529999999995,-2.6720650000000004,3.189239,-0.309636,-1.600883,-0.081879,-29.404434000000002,51.051871999999996,-41.714656,5.1238529999999995,2.6720650000000004,3.189239,0.309636,1.600883,0.081879,29.404434000000002,51.051871999999996,41.714656,0.0,0.0,0.0,0.0,0.0,0.0,0.0,0.0,0.0,0.0,0.0,0.0,0.0,0.0,0.0,0.0,0.0,0.0,0.0,0.0,0.0,0.0,0.0,0.0,0.0,0.0,0.0,5.1238529999999995,-2.6720650000000004,3.189239,-1.600883,-0.081879,-29.404434000000002,51.051871999999996,-41.714656
0.0,0.0,0.0,0.0,0.0,0.0,0.0,0.0,0.0,-3.0,-3.0,-3.0,-3.0,-3.0,-3.0,-3.0,-3.0,-3.0,0,0.0,0.0,0.0,0.0,0.0,0.0,0.0,0.0,0.0,5.688912999999999,-3.289801,2.092639,0.383329,1.974466,0.20042100000000002,-33.914318,54.118591,-36.653045,5.688912999999999,-3.289801,2.092639,0.383329,1.974466,0.20042100000000002,-33.914318,54.118591,-36.653045,5.688912999999999,-3.289801,2.092639,0.383329,1.974466,0.20042100000000002,-33.914318,54.118591,-36.653045,5.688912999999999,3.289801,2.092639,0.383329,1.974466,0.20042100000000002,33.914318,54.118591,36.653045,0.0,0.0,0.0,0.0,0.0,0.0,0.0,0.0,0.0,0.0,0.0,0.0,0.0,0.0,0.0,0.0,0.0,0.0,0.0,0.0,0.0,0.0,0.0,0.0,0.0,0.0,0.0,5.688912999999999,-3.289801,2.092639,1.974466,0.20042100000000002,-33.914318,54.118591,-36.653045
1.7550395,0.40942900000000026,2.1405255,0.208795,0.2789704999999998,0.06444950000000002,4.058895000000003,0.09019650000000468,4.101649999999999,-2.0,-2.0,-2.0,-1.9999999999999998,-1.9999999999999998,-2.0,-2.0,-1.9999999999999996,-2.0,0,2.602025456264962,0.6070203437205305,3.173547855067813,0.3095599302128772,0.4136022821976172,0.09555297168157681,6.0177267316812975,0.1337255310014422,6.081115389533496,4.103871,-2.2315099999999997,6.383267,-0.220419,-1.786774,0.180713,-25.435737,54.479381000000004,-44.332733000000005,2.3488314999999997,-2.640939,4.2427415,-0.42921400000000004,-2.0657445,0.1162635,-29.494632000000003,54.3891845,-48.434383,0.593792,-3.050368,2.102216,-0.638009,-2.3447150000000003,0.051814,-33.553527,54.298988,-52.536032999999996,2.9320936311708223,2.6724877750444436,4.75212635059007,0.47730494426624165,2.084496313057546,0.13293208597814152,29.772603941147793,54.389259288793895,48.60774618631467,4.1075186049271175e-16,0.0,-2.716816171886334e-16,9.528838730639846e-17,-1.198523827181674e-15,0.0,1.275111022303914e-15,1.1820373616146468e-13,-2.57427190328819e-15,1.7550394999999999,0.40942900000000026,2.1405255,0.208795,0.2789705000000001,0.0644495,4.0588950000000015,0.09019650000000112,4.101649999999996,3.0801636465602495,0.1676321060410002,4.58184941615025,0.043595352025000006,0.07782453987025006,0.004153738050250001,16.474628621025012,0.008135408612250202,16.823532722499966,2.3488314999999997,-2.640939,4.2427415,-2.0657445,0.1162635,-29.494632000000003,54.3891845,-48.434383
0.9134340000000001,0.5997775,0.48125899999999966,0.15965875,0.2514735,0.0987385,3.5628075,2.2549412499999875,2.0508237499999993,3.9834607494531014,1.9256108449094471,9.210168620244133,4.641895764630557,2.0126308426126585,1.8467191317054068,3.252061900994251,0.5808044065030482,10.699083665801126,0,0.35853324669455416,0.49697567665417025,0.408230073058862,0.11391351755555018,0.1488569692435087,0.07087505775455105,2.1396359241640903,1.7384541420519963,1.55262552128562,5.5500419999999995,2.006443,16.516044,1.103725,2.1105549999999997,0.309612,-9.200161,51.593055,-28.275207,-0.1436595,0.9218145000000001,7.5301480000000005,-0.04464699999999999,0.0054275,-0.000518,-11.8158925,44.828233499999996,-51.314265999999996,-0.5219630000000001,-1.8436290000000002,3.083889,-1.329642,-0.504975,-0.532493,-35.357479,42.032104,-56.550415,1.5735829440410536,1.1643879981975902,8.226790140385722,0.40804409182063556,0.6973493399125393,0.17741196112899593,15.843914595487792,45.499783772705996,50.39944411865154,2.1554627555105044,-1.3861345313292388,2.30289364964054,-0.5019128521696702,1.7592960396552684,-1.164024027148788,-2.108154103225014,1.1721275869737944,3.177302500412137,1.4863191304085503,0.8920729825255576,2.1723728656686405,0.40790934089977554,0.6448992788758784,0.17241212102286574,6.71698135947367,2.5757773333368688,5.259800612089961,2.2091445574184294,0.7957942061520437,4.7192038674933805,0.16639003039328928,0.41589507989462793,0.029725939475603303,45.11783858351675,6.634628870931992,27.665502478941935,0.5167385454545455,0.7483349545454545,7.934788727272727,0.26533190909090915,-0.04182181818181818,-14.349626863636361,45.42681690909091,-50.124230318181816
0.16760299999999972,0.40703500000000004,0.34478300000000006,0.085222,0.084157,0.073239,1.4431650000000005,1.262763999999997,1.2217680000000009,6.535010420403104,2.781292621208369,4.0012837188199475,9.79076346622649,3.4862310254235904,2.4588188689594306,-0.8296436395130828,1.1325284454571953,3.5829691854224857,0,0.09939513533083359,0.24848857962819532,0.3123857700413492,0.06475561709766917,0.06830941461542708,0.056463422889567356,0.8023665294286176,0.802360599019727,1.0350831866563435,9.189414,-2.011232,0.119716,0.253365,1.551549,0.333847,-31.749571999999997,56.283336,-8.552378,9.012235,-3.7878199999999995,-3.22276,0.017138999999999998,0.026866,0.0017460000000000002,-33.373129999999996,54.659778,-12.217682,7.058466,-4.151757,-4.228375,-0.556248,-1.230697,-0.308517,-35.357479,51.232265000000005,-29.322437,8.856567473363594,3.650337494350293,3.1329744548178127,0.12578194118839642,0.47208317431176544,0.11733294302552164,33.35919601048917,54.415936792433186,14.392092793491326,-2.6503332137439295,1.8348329226097546,2.1139748455397487,-2.579452990966649,0.6122407313683988,-0.40288342510422487,-0.05412476629375343,-1.2785633359834445,-2.0937024085394023,0.4624223577265715,0.5190114943001574,0.9544407631105517,0.12573847337499375,0.4715554874746166,0.11710857127528172,0.9453453507571656,1.1933312274665873,4.542881757568152,0.21383443692540124,0.26937293121568223,0.9109571702870524,0.01581016368667401,0.22236457776742333,0.01371441746613774,0.8936778321981885,1.424039418446912,20.637774663245498,8.844487151515153,-3.6132521212121205,-2.98405290909091,0.022314696969696977,-0.007252727272727273,-33.34579854545455,54.40285045454545,-13.656301121212122
1.4270169999999993,0.27055899999999955,1.5012409999999998,0.12863249999999998,0.2731115000000002,0.23556,1.803951000000005,0.36079049999999313,3.316226999999998,-2.0,-2.0,-1.9999999999999998,-2.0,-2.0,-2.0,-2.0,-2.0,-2.0,0,2.1156985700452084,0.40113137363665713,2.225743237111568,0.19071082987192178,0.4049157157993926,0.3492417785911796,2.6745417546754013,0.5349087957157405,4.9166455072681785,6.038485,-2.274607,3.423883,-0.35278000000000004,-1.524715,0.411612,-32.831947,55.200962,-36.30397,4.6114679999999995,-2.545166,1.922642,-0.4814125,-1.7978265,0.176052,-34.635898,54.8401715,-39.620197000000005,3.1844509999999997,-2.815725,0.421401,-0.610045,-2.070938,-0.059508000000000005,-36.439849,54.479381000000004,-42.936424,4.827216033420609,2.5595062297320164,2.4393189213887143,0.49830143007270206,1.8184526431926953,0.29407961558734397,34.68284402232327,54.84135829767806,39.758739565463316,4.58462729005819e-16,0.0,1.9688391188522772e-16,7.131586888813227e-16,0.0,0.0,-5.976172187551887e-15,2.947595375133078e-14,3.2147069953813076e-15,1.427017,0.270559,1.5012409999999998,0.12863249999999996,0.27311149999999995,0.23556,1.8039510000000014,0.3607904999999967,3.3162270000000014,2.036377518289,0.073202172481,2.2537245400809995,0.016546320056249987,0.07458989143224998,0.0554885136,3.254239210401005,0.1301697848902476,10.99736151552901,4.6114679999999995,-2.545166,1.922642,-1.7978265,0.176052,-34.635898,54.8401715,-39.620197000000005
