IQRAccX,IQRAccY,IQRAccZ,IQRGyroX,IQRGyroY,IQRGyroZ,IQRMagX,IQRMagY,IQRMagZ,KurtosisAccX,KurtosisAccY,KurtosisAccZ,KurtosisGyroX,KurtosisGyroY,KurtosisGyroZ,KurtosisMagX,KurtosisMagY,KurtosisMagZ,Label,MADAccX,MADAccY,MADAccZ,MADGyroX,MADGyroY,MADGyroZ,MADMagX,MADMagY,MADMagZ,MaxAccX,MaxAccY,MaxAccZ,MaxGyroX,MaxGyroY,MaxGyroZ,MaxMagX,MaxMagY,MaxMagZ,MedianAccX,MedianAccY,MedianAccZ,MedianGyroX,MedianGyroY,MedianGyroZ,MedianMagX,MedianMagY,MedianMagZ,MinAccX,MinAccY,MinAccZ,MinGyroX,MinGyroY,MinGyroZ,MinMagX,MinMagY,MinMagZ,RMSAccX,RMSAccY,RMSAccZ,RMSGyroX,RMSGyroY,RMSGyroZ,RMSMagX,RMSMagY,RMSMagZ,SkewAccX,SkewAccY,SkewAccZ,SkewGyroX,SkewGyroY,SkewGyroZ,SkewMagX,SkewMagY,SkewMagZ,StdAccX,StdAccY,StdAccZ,StdGyroX,StdGyroY,StdGyroZ,StdMagX,StdMagY,StdMagZ,VarianceAccX,VarianceAccY,VarianceAccZ,VarianceGyroX,VarianceGyroY,VarianceGyroZ,VarianceMagX,VarianceMagY,VarianceMagZ,meanAccX,meanAccY,meanAccZ,meanGyroY,meanGyroZ,meanMagX,meanMagY,meanMagZ
0.09098399999999973,0.541117,0.4788649999999999,0.07563500000000001,0.088951,0.104397,0.3607899999999944,1.2627640000000042,0.8726919999999865,-0.624728931481136,-0.7817625570192903,-1.5483332145422393,-0.4512270000222953,-0.5509145152730288,-1.5367187607321742,-0.6377854465186505,-1.1719707643987907,-0.7251814033621029,4,0.0425981269421026,0.32658316888575856,0.2910867065702979,0.0927901424473916,0.12319238354006748,0.10108085405327494,0.26745699241175397,1.0698161088292661,0.77630979543837,4.146969,1.216316,7.321842,0.221742,0.020946,0.033777,-37.161434,60.252033,-53.408725,4.118237000000001,0.9960389999999999,6.862132000000001,0.105627,-0.07040199999999999,-0.065294,-38.063407,58.808868000000004,-55.154106000000006,3.9027480000000003,-0.047886,6.665797,-0.180135,-0.24404299999999998,-0.133472,-38.604595,57.36570699999999,-55.85226,4.06751803177638,0.9053077440329338,6.94272763566237,0.14745285115927736,0.11910410453884449,0.08021525336991712,37.99426582686562,58.853397545917296,54.91636654488302,-0.964487985125183,-0.8503554368637191,0.3326133346286017,-0.8171992134153395,-0.8687221264779398,0.09759497211337394,0.5935964755272246,-0.06477859434288899,0.7571020769560867,0.09011815378623773,0.46506990564060363,0.26173199554551974,0.13388171831493648,0.09531961142388275,0.06293122983511446,0.478642219228267,0.9972449925070584,0.8522042685486624,0.008121281641839995,0.21629001713255996,0.06850363749223995,0.01792431449896,0.009085828321999998,0.00396033968856,0.22909837402776043,0.9944975750804032,0.7262521153325607,4.0665196,0.7767187999999999,6.937792399999999,-0.071414,-0.04974080000000001,-37.9912508,58.844948,-54.9097538
0.19154599999999977,0.25379850000000004,0.37830350000000035,0.04221150000000001,0.045807500000000015,0.02290349999999998,0.9019779999999997,1.533359499999996,0.785420000000002,10.162212366142997,3.82143158500718,2.672190885088736,2.9299992096062617,6.110711021595117,3.594954189641978,0.3630716150467834,3.2959705554162575,1.9569736431077924,4,0.17039102516619298,0.18458990661282138,0.24848857962819398,0.031192468075139403,0.030798095885016863,0.017373132796448653,0.8023605990197374,1.069817591431502,0.7763097954383805,4.984982,0.948152,8.260417,0.625483,0.5993930000000001,-0.036531,-34.816295000000004,66.746261,-55.154106000000006,2.997693,0.670411,7.096775999999999,0.219612,0.040121,-0.12202,-36.800643,58.808868000000004,-58.993949,2.638545,-1.1588530000000001,6.809457000000001,-0.13273,-0.202497,-0.41816800000000004,-39.506572,56.82451999999999,-60.91387099999999,3.1077865348251867,0.6998581305160761,7.184262756142516,0.26329464432483785,0.14826599452297118,0.16174219428814132,37.094342640738056,59.40128440210414,58.74545801161765,3.001807549781517,-2.0887585500466526,1.3801372201880007,0.4850781927654488,2.074868145830212,-1.9605699184571586,-0.5372578499067479,1.7842563737790675,1.0429851925029008,0.4182711210066874,0.47804087561614417,0.2988174915714027,0.1315683968625553,0.13467456712218442,0.07986833394512881,1.0679668860532026,2.061054589092385,1.1275702078721328,0.17495073066819095,0.22852307875984984,0.08929189326902533,0.017310243052982857,0.018137239029547756,0.006378950767170614,1.1405532697061742,4.247946019218779,1.271414573680805,3.079510742857143,0.5111539142857142,7.1780456571428575,0.06201262857142857,-0.1406470285714286,-37.07896577142857,59.36551728571429,-58.734635628571425
0.22865800000000025,0.47766725,0.3280220000000007,0.037950750000000005,0.079097,0.01970825000000001,1.4431650000000005,1.7588557500000093,1.3090392499999908,7.148801356195408,2.054845744336763,1.3504412532855765,7.981241282584396,3.768408515108029,7.225702442548657,0.45616204974774766,3.0368416253767156,-0.3982223989266349,4,0.21653924312050804,0.3372341832235027,0.2839865245458737,0.02803378404861319,0.05685779507968983,0.01401726267486123,1.2035483115406906,1.3372686534343758,1.0350854105596656,4.735972,1.776588,7.987464,0.474214,0.407643,0.166139,-34.635898,61.875591,-54.63049300000001,3.308955,1.1899790000000001,6.960299000000001,0.221742,0.0395885,-0.12934400000000001,-36.89084,56.283336,-56.89949,2.906709,-0.181969,6.321014,-0.26855300000000004,-0.250434,-0.303917,-40.228153000000006,53.397009999999995,-58.644874,3.369921756315098,1.2424242822287286,6.989245023870097,0.24041643319457176,0.11700309741311085,0.14480972681344895,36.81819682235524,56.39118775321494,56.90797915657691,2.302357584045777,-1.1793929037337336,0.9019227916451392,-2.0597567432285526,1.0607334315617245,1.1041246465212782,-0.4908860163716382,1.3908292344759141,0.2463602606596924,0.3153811367117307,0.39452306069546145,0.33362526508279833,0.11417089216778398,0.10627251950202818,0.07036193690790075,1.1368380208963733,1.5732599052373035,0.982920207743678,0.09946526139358337,0.15564844542051476,0.11130581750156746,0.013034992618387756,0.011293848401308959,0.004950802165431407,1.292400685755583,2.4751467294272893,0.9661321347908751,3.3551315,1.1781212380952382,6.9812778333333325,0.04894769047619048,-0.12656640476190475,-36.800641523809524,56.36923726190476,-56.89948997619047
0.19633400000000023,0.29210749999999996,0.1652085000000003,0.036885,0.049402,0.021039000000000002,0.9921755000000019,1.1725695000000087,1.2217680000000044,2.921523176054844,5.198981462707863,4.7325455603277815,4.395647164498943,5.668174025682129,9.371544362480503,1.5070682272124252,3.9728826724965494,-0.5320861650523319,4,0.14909196169514236,0.21299063471051496,0.1064953173552578,0.030007868902553397,0.03988051707558219,0.01697876060632616,0.8023650468263923,0.8023665294286176,0.7763157258472606,4.333726,1.1588530000000001,7.853382000000001,0.512564,0.431612,0.018331,-34.635898,61.695193999999994,-56.201335,3.069523,0.8906879999999999,7.034522999999999,0.211089,0.044649,-0.11988900000000001,-36.259456,56.463729,-58.12125699999999,2.753472,-0.483653,6.775936,-0.120746,-0.32367199999999996,-0.43121800000000005,-39.686965,54.479381000000004,-59.866641,3.183651847392375,0.8892739077105232,7.080042284036049,0.23393667582643157,0.11954504175365752,0.14848366121023332,36.41236382335225,56.67851839350179,58.13924055000493,1.8533064332403633,-2.1717876448296125,1.9032538597418405,-0.33534597062009264,0.04981271509421671,-2.560081177061428,-0.929301989431844,1.8515863546048799,0.08393317673141756,0.3319561453617839,0.32891845141084164,0.19348205547410213,0.09826653850928097,0.1082789637585192,0.06624037822585704,1.0262657786759555,1.412855298304983,0.8215902925600234,0.1101948824434538,0.1081873476785062,0.037435305790483535,0.009656312590595998,0.011724333992618713,0.004387787707504596,1.0532214484813653,1.996160093948462,0.6750106088288648,3.166298186046512,0.8262086511627907,7.077398069767441,0.05066244186046512,-0.13288946511627908,-36.39789853488373,56.660906162790695,-58.13343513953487
0.22027724999999965,0.4046402499999997,0.23943224999999835,0.057258500000000045,0.044742000000000004,0.02183800000000001,1.7588527500000026,1.0372747500000017,0.6981539999999953,1.8038975819048613,1.3946297361247888,-0.5959487543237838,1.5508919827024181,3.861347255566315,2.2594319850784927,-0.01787164786648132,2.0108801758517325,0.3680788026761723,4,0.17394111617840508,0.28043643353366243,0.18814148022725155,0.04659225731875706,0.034154707307713555,0.018754918064095877,1.2035460876373685,0.8023650468263923,0.5175452998337008,4.616256,1.5515219999999998,7.336208,0.359962,0.270754,0.017797999999999998,-35.718269,60.973613,-53.932338,3.660921,1.2618084999999999,6.8094565000000005,0.210823,0.042784,-0.1281455,-37.0712355,56.102939,-55.503184999999995,3.414306,0.09098400000000001,6.555658,-0.016347999999999998,-0.23551999999999998,-0.27755100000000005,-40.408546,54.659778,-57.074028000000006,3.7545402283898635,1.2169238093597219,6.866001479069126,0.23435129511975755,0.09798944324910326,0.14648269525494761,37.305979387085095,56.42760812953114,55.50748995027322,1.5304344966654244,-1.4288035164416675,0.5979302310952349,-0.6641796864883762,-0.4626142137612119,-0.4578164628811265,-0.8110505519511528,1.5284405863022812,0.1373580276711609,0.2788644003620285,0.3793862224256721,0.21925005921102275,0.07865173445019295,0.08587305605703947,0.05639288566370133,1.2109234628130552,1.4789443718008468,0.6914078876516507,0.07776535378927371,0.14393390576642157,0.04807058846403699,0.006186095332023669,0.007374181756575444,0.003180157553479291,1.4663356327911605,2.1872764548814017,0.4780448671069176,3.7441697307692317,1.1562740384615384,6.862499961538462,0.047199038461538466,-0.13519253846153848,-37.286321384615384,56.40822353846154,-55.503183653846165
0.1005609999999999,0.29689599999999994,0.1676030000000006,0.042079000000000005,0.03728499999999999,0.027697000000000013,1.082371000000002,1.0823709999999949,1.221771000000004,1.9730317975381144,6.929484507780964,3.7854990992203073,7.203690551163936,7.5379161628605775,7.180772439386358,3.479086844335149,9.494396374097372,0.6439733538275814,4,0.07809607185978229,0.21298915210829625,0.12779438082630779,0.027244298367258987,0.02645407138479545,0.02329612865937855,0.8023665294286176,0.5349095370168426,0.7763157258472606,3.7590879999999998,1.091812,8.293938,0.555708,0.45478199999999996,-0.06849,-34.094711,60.071636,-56.026798,2.9881159999999998,0.847591,7.053678,0.214552,0.04385,-0.12601500000000002,-35.537876000000004,55.020568000000004,-58.644874,2.6481220000000003,-0.320839,6.23003,0.17114100000000002,-0.017669999999999998,-0.338805,-39.867362,53.757801,-60.390254000000006,3.0518776026440926,0.8430951742409714,7.1297526313729875,0.25212854096239795,0.12005738921808214,0.14484093611054613,35.79960950897984,55.274300384438675,58.79710984280052,1.4217995151465157,-2.3394303889496655,1.13296128076281,2.794963643329397,2.786054079504467,-2.5878823119762044,-1.6208103828413165,2.6814175077033013,0.5753482009198729,0.2312632955420258,0.2747750191804421,0.3521842190800639,0.08398195966725777,0.09706434401227207,0.0511938932821026,1.1703193163387002,1.1092789810945847,0.9571594144601169,0.05348271186495837,0.07550131116561234,0.12403372416903448,0.007052969549552911,0.009421486878532696,0.00262081470937931,1.369647302195483,1.2304998578982398,0.9161541446896337,3.0431027241379307,0.7970622068965517,7.121049000000001,0.07065613793103448,-0.13549199999999997,-35.780475034482755,55.2631684137931,-58.78931851724139
