IQRAccX,IQRAccY,IQRAccZ,IQRGyroX,IQRGyroY,IQRGyroZ,IQRMagX,IQRMagY,IQRMagZ,KurtosisAccX,KurtosisAccY,KurtosisAccZ,KurtosisGyroX,KurtosisGyroY,KurtosisGyroZ,KurtosisMagX,KurtosisMagY,KurtosisMagZ,Label,MADAccX,MADAccY,MADAccZ,MADGyroX,MADGyroY,MADGyroZ,MADMagX,MADMagY,MADMagZ,MaxAccX,MaxAccY,MaxAccZ,MaxGyroX,MaxGyroY,MaxGyroZ,MaxMagX,MaxMagY,MaxMagZ,MedianAccX,MedianAccY,MedianAccZ,MedianGyroX,MedianGyroY,MedianGyroZ,MedianMagX,MedianMagY,MedianMagZ,MinAccX,MinAccY,MinAccZ,MinGyroX,MinGyroY,MinGyroZ,MinMagX,MinMagY,MinMagZ,RMSAccX,RMSAccY,RMSAccZ,RMSGyroX,RMSGyroY,RMSGyroZ,RMSMagX,RMSMagY,RMSMagZ,SkewAccX,SkewAccY,SkewAccZ,SkewGyroX,SkewGyroY,SkewGyroZ,SkewMagX,SkewMagY,SkewMagZ,StdAccX,StdAccY,StdAccZ,StdGyroX,StdGyroY,StdGyroZ,StdMagX,StdMagY,StdMagZ,VarianceAccX,VarianceAccY,VarianceAccZ,VarianceGyroX,VarianceGyroY,VarianceGyroZ,VarianceMagX,VarianceMagY,VarianceMagZ,meanAccX,meanAccY,meanAccZ,meanGyroY,meanGyroZ,meanMagX,meanMagY,meanMagZ
4.525272,0.7949149999999999,4.434288,0.16378700000000002,0.12357299999999993,0.09800600000000001,11.364903000000002,1.2627679999999941,11.694069000000006,-1.4709885624490822,-1.0750946878624508,-1.386827684972135,-0.43262088825744094,-0.3103781293207386,-0.5120539553693253,-1.5984704325318662,-0.30442647517065513,-1.02731374770142,0,3.9190128526512873,1.157243679052329,4.451487956825353,0.18952697200044516,0.11411144495172068,0.14293471468168809,10.163267859900271,0.26745106200287383,11.64469140964216,7.024946000000001,0.8859,10.132779,0.276382,1.381618,0.080194,-19.302297,47.624359000000005,-41.191043,2.5236169999999998,-0.014366,7.130296,0.127242,1.268432,-0.047639,-29.224039,44.016452,-56.550415,-0.19633499999999998,-0.8619559999999999,1.666449,-0.23708400000000002,0.925945,-0.402111,-36.079059,43.836059000000006,-67.19725,4.071024221821138,0.6572492974689285,6.8729392240755045,0.21080028787504063,1.2392029230961328,0.19660270606886365,28.383696691893817,44.9057500792673,57.16027259616283,0.25880594146281843,0.408975557037417,-0.23233972781550116,-0.9728035238604447,-1.069870098252849,-0.7969091345434236,0.10239655775030518,1.1615642270037259,0.46104859050567837,2.716463436677888,0.6382056650333339,3.0615052402521865,0.18415726922171713,0.16142430385168152,0.16163096165079263,6.4695294553059925,1.4494622939123876,9.226062775490991,7.379173602807842,0.40730647088064,9.372814336091599,0.0339138998072,0.026057805874,0.02612456776416,41.854811373071854,2.1009409414737603,85.12023433730054,3.0321716000000003,-0.15706739999999997,6.153412,1.2286439999999998,-0.11192880000000001,-27.636559600000005,44.8823512,-56.41078379999999
7.0680432500000006,1.9058812499999997,7.591203750000001,0.26352425,0.9844527499999999,0.23203174999999993,15.198304499999999,2.4804347500000006,20.988233749999992,-1.6394901069175973,-1.1333921944964946,-1.344052379513296,0.6220889763704651,-1.4051663502271659,-1.0734395865841784,-1.4828680990894494,0.09131686625720548,-1.2275982967410841,0,5.803971815527142,0.6602680023981587,6.584934016727186,0.20670217740072327,0.729874693954778,0.21084827450477422,10.296998580009477,2.0059081692593157,13.585471828646977,9.088853,1.570676,12.096124,0.352283,-0.183013,0.673556,-12.447277,48.526336,-31.940510999999997,4.4630195,0.962518,4.044013,-0.0029879999999999993,-1.2399040000000001,0.38579699999999995,-26.608306499999998,43.29487399999999,-57.684912999999995,-0.751818,-2.016021,-3.122198,-0.874654,-1.8214139999999999,0.07753099999999999,-35.177085,41.490921,-68.593559,5.649111841594361,1.26563155725847,6.599285579944137,0.35848279025638036,1.208428361893352,0.4250448311704896,26.384778999306192,44.065869337987955,55.237654284935054,-0.037654906602120834,-0.6764294690681484,0.03621647515440207,-1.1042590086008675,0.2768219226371638,-0.2076164588954484,0.29779876767012536,0.9871846414388604,0.473572253897589,3.7413701651436617,1.241962736169422,4.977927434855329,0.34345933586370525,0.5629494831915982,0.19564429343374037,8.480498158616125,2.086277007932897,12.514151013591972,13.99785071262711,1.5424714380334374,24.779761546685357,0.1179643153919375,0.3169121206256875,0.038276689553187505,71.91884901829148,4.352551753829441,156.60397559098496,4.232565875,0.24362225000000004,4.332529125000001,-1.06929275,0.37734125,-24.984749625,44.01645475,-53.801435624999996
3.5388109999999995,1.90228975,4.94667375,0.35240775,0.689103,0.20879500000000004,15.378699249999997,2.119647250000007,14.530312750000007,-1.2064300146538744,-1.0938583051685937,-1.3253629091285721,-0.8200287669368556,-1.5849137209551214,-0.3103079062519485,-1.4623190141842237,-0.4745044634366793,-1.082536872212892,0,2.8434131125676245,0.7206158431002111,4.23849732211484,0.3399629126066622,0.6088535813637124,0.16662521553118909,14.576268945735439,1.8721789317523363,6.210500602540276,6.72805,1.8196860000000001,10.784034,0.373056,1.766185,0.063949,-12.988463000000001,49.608707,-39.620197,1.992077,1.127726,7.4152205,-0.077691,1.2793515000000002,-0.079997,-24.3533655,43.836057,-62.8337935,-0.608158,-2.116582,1.7382790000000001,-0.640026,0.770147,-0.55418,-36.981037,41.490921,-68.069946,3.6629700596155574,1.4947239746177776,7.569537356158918,0.33723309940479845,1.3224980347284705,0.25597816365886894,26.46938691372607,44.872039405716244,58.8285609267839,0.3923357377192084,-0.7600137310018441,-0.3310900151715647,-0.23975904004876403,-0.0320778061050409,-0.9868004685546651,-0.07654546285362698,0.7381556103297525,0.7407731474658513,2.5257503147235716,1.4424413368590785,3.2139466412151623,0.32207379477505704,0.38230300366623093,0.20623042926656635,8.993871024739281,2.573751865745593,10.474561575550815,6.379414652326221,2.0806370102798053,10.329453012578222,0.10373152928080555,0.1461555866122222,0.04253098995547222,80.8897160096448,6.624198666428921,109.7164402000056,2.6529106666666666,0.3918708333333334,6.853352666666667,1.2660353333333332,-0.15163716666666668,-24.89455216666666,44.79816650000001,-57.88854066666667
6.802273500000001,2.449393,5.9451065000000005,0.11931150000000001,1.0603535,0.3728485000000001,19.031705,2.7961289999999934,17.017487000000003,-1.5994441696861343,-1.3638286314632284,-1.2321612681548564,1.794667934962809,-1.310689954070696,-1.078334462789673,-1.7315316643788288,-0.9505997103227655,-1.2651355320695246,0,5.118854658645719,1.5761232838467167,4.49408460116524,0.09950188269056648,0.55949849481077,0.32377512028390887,14.44254119083067,2.407090692672522,2.5877042601353035,8.054506,2.140525,11.310786,0.8337899999999999,-0.029612,0.855719,-11.906089999999999,48.165546,-37.525737,2.293762,1.077446,6.7903020000000005,-0.116174,-1.570008,0.420285,-21.647436,44.196849,-63.881023,-1.249837,-2.020809,-0.45971000000000006,-0.282891,-1.947384,0.013347999999999999,-36.620246,42.392897999999995,-65.626403,4.6092393695066125,1.5955723381139089,7.210972652769399,0.3517517436764579,1.3648681830817948,0.5035048735186185,25.8196758011538,44.52700755116649,57.15513898255566,0.2112771663551066,-0.4550918510664114,-0.3268326876806819,1.8615574625955675,0.4770229067552025,0.005334922074322604,-0.11753786947481966,0.7011673254729127,0.5931130669423893,3.6486886294690835,1.5530302071525346,4.019952900001757,0.3516266630097139,0.6855754417371303,0.27051927484475224,9.857912782116488,2.0383350473827844,10.664078469493104,13.312928714816978,2.4119028243282448,16.160021318232534,0.12364131013934691,0.47001368631306123,0.0731806780625306,97.17844441981563,4.154809765388978,113.72256960350639,2.816408857142857,0.3659894285714284,5.986493571428572,-1.1801912857142856,0.42466042857142855,-23.863721714285713,44.48032814285714,-56.15146785714285
8.2867545,2.722346,9.3737775,0.2796365,0.8471640000000001,0.30906449999999996,11.184510999999997,4.3294864999999945,26.7916315,-1.6614386714668472,-1.5273279381907627,-1.754125544392266,0.027178995923242244,-0.7895904017333022,-1.149563691416792,-0.8831433837674543,-1.2286308333165785,-1.5964861888177992,0,6.3683947736066795,2.207993523351619,6.730475887410115,0.18834237282785912,0.9006452652889091,0.31113890157558566,4.011822268927522,4.54672439293328,23.28938281928432,9.31392,1.292935,10.467984,0.23456999999999997,2.367003,0.135855,-14.070835,52.134243,-31.765974,4.266685,-0.435767,2.90192,0.10753499999999999,1.299059,-0.23699299999999998,-34.455501,47.804756,-49.394344,-2.202778,-2.8684,-1.637717,-0.560929,0.114201,-0.562703,-37.341827,43.294872,-69.117172,5.812127450889341,1.6306161570458135,6.410690575479413,0.25639031140737634,1.3587672784855396,0.3172813127777934,31.45403038486618,48.18151734039587,51.31672358581822,-0.07991406863678133,-0.18963717687650847,0.11448089395572175,-1.084251976730456,0.16828934947397392,0.11582705808151929,0.9195895258360112,-0.2723248736060431,-0.13641350988556264,4.43051907224916,1.5348109136365817,4.8435466269877665,0.2552440029024648,0.6866853877300725,0.23534080356368295,8.781515461810846,2.9967301285072945,14.519537582046198,19.629499249563555,2.3556445406179587,23.459943927804574,0.06514950101767346,0.471536821722,0.055385293822000005,77.11501380602297,8.980391463103347,210.81697159645196,3.7618248571428574,-0.5506945714285715,4.199644,1.1724809999999999,-0.21279599999999999,-30.203327857142856,48.088233714285714,-49.21980442857142
5.1585705,2.7570635,5.228006250000001,0.26818425,0.39202325000000005,0.17717,3.2471152500000002,3.923596500000002,21.16277150000001,-0.4155473821969422,-1.1872406592161877,-0.34469925324670303,4.544781556553003,0.3431348990848826,1.3626961089189011,1.3364860050063436,-0.5510708575727468,-0.9003714016563533,0,1.15724442035344,0.7383648155590503,1.6329217748376665,0.15872813481431902,0.3087704445315229,0.1372096462149287,1.3372716186388054,1.872179673053449,5.0460322028771625,9.682644999999999,1.767011,11.478388,1.209834,2.040494,0.8775569999999999,-12.808067,50.330290999999995,-30.544203999999997,8.849421,-1.9657395000000002,-0.45252749999999997,-0.074495,-0.0105705,0.12719999999999998,-34.275108,48.0753475,-34.384046,-1.695181,-3.510078,-3.854861,-0.909542,-2.146857,-0.36083200000000004,-36.439849,41.671314,-67.371788,7.661968630335893,1.9701593808699454,4.780785040425671,0.3677443273811827,0.9743905603631864,0.30196307639020775,31.869485607664988,47.18627168934206,44.21733685467703,-1.0793306785989376,0.5199473454991077,1.0075954012546318,1.220297863055902,-0.01222811707337206,0.6968267173766093,1.6538288934631433,-0.8362381372584039,-0.8815621561080662,3.94766927004403,1.6194462581317177,4.424259920255193,0.36083290951657493,0.9700674149956723,0.25442669850568833,6.752358842194223,2.5398756942136687,13.48553942422124,15.584092665649965,2.6226061829768224,19.574075841976487,0.13020038859019675,0.9410307896363859,0.06473294491250443,45.5943499337585,6.450968542057366,181.85977356222534,6.56670926923077,-1.1220168461538462,1.8115821153846154,-0.09168519230769231,0.16263073076923076,-31.145942961538466,47.11786569230769,-42.11072434615385
7.623528,3.9937319999999996,10.156722,0.337694,1.490062,0.36858699999999994,12.086487000000005,8.117790999999997,30.544206999999997,-1.5033521615812238,-1.5936937031481073,-1.6767712442748757,2.39888191122433,-1.5545781394081146,-0.714881893234685,-0.9901653374277211,-1.7134237213893169,-1.6046950275637202,0,3.521432311327953,3.4291343928171023,5.239547374845386,0.171363612221533,0.9997527757893534,0.4244601195448428,3.7443637939135526,4.814182867947259,25.877091527226273,9.390538000000001,2.5619259999999997,10.046583,0.177044,0.233779,0.8903399999999999,-12.808067,52.855823,-25.308055,7.015368,0.24900999999999998,0.699142,0.019116,-1.309813,0.420019,-34.094711,44.55764,-47.648959999999995,-0.766184,-3.107832,-2.834879,-1.38226,-1.9841360000000001,-0.23912399999999998,-36.620246,41.310522999999996,-68.069946,6.59525213885457,2.199226307338611,5.809043234999078,0.49166342131177504,1.2841817380480502,0.5752283184585636,29.6737324216587,47.52772417226941,48.45900212645267,-0.41223752365161365,0.04273782914628128,0.2855212309060769,-1.9137866229473286,0.2801701186693072,-0.5145731697495654,0.8323908326287841,0.15214338528028107,-0.034815304064872515,4.035613219072743,2.1372939657235204,5.0065539237393395,0.46658265813730065,0.8225103713252376,0.3544197810121024,9.106383863168698,4.399081745893644,16.200231947246397,16.286174053954667,4.568025495918172,25.06558219130978,0.21769937687446916,0.6765233109375803,0.12561338117266663,82.92622706337927,19.351920207054675,262.44751514458284,5.216433333333333,-0.5182382222222223,2.946082333333333,-0.9862045555555556,0.4530720000000001,-28.241886777777776,47.32370066666667,-45.670859111111106
