IQRAccX,IQRAccY,IQRAccZ,IQRGyroX,IQRGyroY,IQRGyroZ,IQRMagX,IQRMagY,IQRMagZ,KurtosisAccX,KurtosisAccY,KurtosisAccZ,KurtosisGyroX,KurtosisGyroY,KurtosisGyroZ,KurtosisMagX,KurtosisMagY,KurtosisMagZ,Label,MADAccX,MADAccY,MADAccZ,MADGyroX,MADGyroY,MADGyroZ,MADMagX,MADMagY,MADMagZ,MaxAccX,MaxAccY,MaxAccZ,MaxGyroX,MaxGyroY,MaxGyroZ,MaxMagX,MaxMagY,MaxMagZ,MedianAccX,MedianAccY,MedianAccZ,MedianGyroX,MedianGyroY,MedianGyroZ,MedianMagX,MedianMagY,MedianMagZ,MinAccX,MinAccY,MinAccZ,MinGyroX,MinGyroY,MinGyroZ,MinMagX,MinMagY,MinMagZ,RMSAccX,RMSAccY,RMSAccZ,RMSGyroX,RMSGyroY,RMSGyroZ,RMSMagX,RMSMagY,RMSMagZ,SkewAccX,SkewAccY,SkewAccZ,SkewGyroX,SkewGyroY,SkewGyroZ,SkewMagX,SkewMagY,SkewMagZ,StdAccX,StdAccY,StdAccZ,StdGyroX,StdGyroY,StdGyroZ,StdMagX,StdMagY,StdMagZ,VarianceAccX,VarianceAccY,VarianceAccZ,VarianceGyroX,VarianceGyroY,VarianceGyroZ,VarianceMagX,VarianceMagY,VarianceMagZ,meanAccX,meanAccY,meanAccZ,meanGyroY,meanGyroZ,meanMagX,meanMagY,meanMagZ
3.802186,2.4948855000000005,3.4382494999999995,0.389227,0.8112109999999999,0.1281,16.866959499999997,7.486404499999992,7.417879500000012,-1.3606189401342486,-1.8134978043513994,-0.3438341107358296,-0.6997856249012067,-1.1916500226445343,-0.788133054727679,-1.584043890518834,-1.6768815344316346,0.4569950137517611,0,3.2942427951708075,1.08624778921697,1.6613210203331408,0.3316714596996697,0.878928107992239,0.028824752332185913,12.837812579780104,6.1514500387794095,3.6227904119960925,6.8334,-1.422228,8.724916,0.718626,1.8708669999999998,0.30428499999999997,-12.627672,60.612823,-32.464126,2.681643,-2.154891,7.29311,0.444583,0.93342,0.094691,-22.729808,55.561752,-53.408725,0.062251999999999995,-4.443865,-0.622524,-0.128538,0.293453,-0.148725,-37.161434,50.871475,-55.85226,3.9638861757878647,3.063122639599825,6.577817676701088,0.4925740434488722,1.1199083834064285,0.15734622916948834,25.633277905188578,55.67229908453955,49.99431413763312,0.1631879940745701,-0.2233648393086828,-1.053826164155273,-0.5882097771013874,0.28973887135029364,-0.07688433673729685,-0.17261832909229333,0.08420802553821799,1.3276865515967888,2.383337860342413,1.2724794905712586,3.1651924699354317,0.2819842119625183,0.5490749109477184,0.14556952694524092,9.292850693878535,3.893517379200201,7.72207019060962,5.680299356541552,1.6192040539244899,10.018443371735959,0.07951509579612245,0.3014832578322449,0.021190487175061223,86.35707401871876,15.159477582134002,59.63036802870169,3.167348142857143,-2.786308714285714,5.766215571428572,0.9760694285714285,0.05972728571428571,-23.889492714285712,55.535982999999995,-49.394342571428574
5.4171575,1.2498375000000002,6.038485250000001,0.15739475000000003,0.69735975,0.10845925,17.768935499999994,2.0745467500000103,13.30854699999999,-1.439073783708028,-0.6166936871733042,-1.231206236250519,0.05072345744727924,-0.790036304913571,-1.5003489541838675,-1.665983612309591,-1.3891043280385618,-1.050043456394656,0,4.302393771226886,1.1749941341133876,2.403235185603293,0.12319164223895825,0.5968111448439004,0.07403300047996797,14.175086422322245,1.7384534007508994,7.504356439113475,8.135912,-1.043925,9.256456,-0.124011,0.074538,0.16233699999999998,-11.184510000000001,53.577404,-30.195127000000003,3.2874065000000003,-1.9825,7.276350000000001,-0.2277425,-1.0511975,0.110538,-24.082773,51.863651000000004,-50.354302499999996,0.07661799999999999,-3.960211,-1.283357,-0.5109739999999999,-1.60541,0.007871,-35.898666,49.789103999999995,-56.026798,4.624473979610181,2.3641196335743033,6.637830927683681,0.2786050239952162,1.068071917336094,0.11245824748601144,25.40725518133505,51.78963512911494,47.65247558465791,0.22487807225094608,-0.5883984916991165,-0.6255224520545853,-0.9758216128322708,0.544915311321991,-0.3118145211523315,0.02741929069073731,-0.10552566649371273,0.7070931825860771,2.983400845982125,0.907450094633997,3.894536122372599,0.11998430827241274,0.5302393886925036,0.05754106426704649,9.21595311069141,1.2945794608533086,9.31769385993189,8.900680607806859,0.8234656742512501,15.167411608465002,0.014396234231609371,0.281153809321,0.0033109740769843746,84.93379173846267,1.675935980463243,86.81941886741242,3.533423125,-2.1830245,5.3752569999999995,-0.9271590000000001,0.096622375,-23.67688375,51.773452375,-46.73263325
9.24209,2.8935399999999993,9.93404975,0.326575,0.951362,0.17969975,22.278818000000005,4.013794749999988,37.52573875,-1.7132813413434722,-1.5281913100767486,-1.6928941092839476,-0.5362845307977677,-0.991165275049871,-1.165689756946336,-1.781101991376139,-0.5968353917418248,-1.7018141168892698,0,6.50328785385519,1.9169082993835405,4.451486474223137,0.18399834832763773,0.24144844299362056,0.14135500201787035,8.023634900940614,2.9420017122915847,14.620557239206631,9.064910000000001,-0.450133,9.706589,0.602777,1.7811169999999998,0.252886,-10.823719,61.695193999999994,-15.882987,3.2371255,-3.337687,5.6314495,0.0372465,0.132995,0.060203,-31.659376,55.561752,-48.259843000000004,-1.62814,-5.2483580000000005,-4.606679,-0.31496199999999996,-0.169944,-0.11437,-37.161434,51.232265000000005,-59.168487,5.542192167326451,3.3372629462172205,5.958698616099665,0.2536332279796732,0.8396204732189023,0.12429249773864516,27.8413655088093,55.87624620522053,44.11307915371598,0.10313700023806843,0.13411270685094556,-0.2656639965766582,0.5183503287968452,0.7932879425461923,0.19422160402938826,0.2572565370615575,0.48728182655129604,0.33495851512474545,4.290490901762628,1.4983381465875558,5.029828592730709,0.23601025203292558,0.6593981800064939,0.1140079074482485,10.788216227146949,3.0624755768886764,17.74588626871432,18.408312178107888,2.245017201519432,25.299175672251387,0.055700839064645055,0.4348059597958765,0.012997802960728395,116.38560936367675,9.378756659039631,314.9164794621434,3.508216333333332,-2.981997111111111,3.194826055555555,0.5197658888888889,0.04950577777777778,-25.666242888888885,55.792258722222215,-40.38622627777777
3.246703,1.541944,5.942711999999998,0.333966,0.833848,0.24394900000000005,11.364904,1.0823740000000015,8.901454999999991,-1.0096386809504954,-1.6250244222941201,-1.5673773033642064,-0.36573035807287235,-1.7669311676045703,-0.8104182191577967,-1.525412255181296,-0.9474090329731792,-0.6909037593018295,0,2.5700761197572763,0.9655535904150844,5.253747738894231,0.4694734055008914,0.13464252047358638,0.21677127036770408,9.895813832692951,1.0698161088292872,6.728039971965097,7.398460000000001,-1.637717,10.439250999999999,0.058950999999999996,-0.66743,0.06273300000000001,-17.137554,59.169658,-36.653045,2.490097,-3.371208,6.895652,-0.284868,-1.626716,-0.178287,-24.714157,57.5461,-53.583263,-1.297723,-4.022464,1.508424,-1.088889,-1.7175310000000001,-0.598007,-34.996688,55.922546,-60.564795999999994,4.035216671301877,3.06259663773893,7.104464728259307,0.5220396179517413,1.3684299046974238,0.30677462160745955,26.515900172897457,57.48420243880351,52.31324061879566,0.2399889110662911,0.29252015051226427,-0.17444944089109377,-1.021007595037043,0.420011184217533,-0.6210423873427302,-0.13774820387154416,0.14829308783630502,0.7918134183066392,2.9453301750791203,0.9262864367361967,3.4094477971291828,0.41474239564221066,0.45637258517706786,0.22882039967310608,6.712450502387646,1.0859728768998984,8.436829458230727,8.674969840231602,0.8580065628814401,11.624334281349036,0.17201125474304002,0.20827593650120005,0.05235877530656,45.056991747004155,1.1793370893622417,71.1800913072698,2.758261,-2.9191594000000007,6.2329034,-1.2900870000000002,-0.20433280000000004,-25.652211800000003,57.4739436,-51.62843260000001
5.1861049999999995,2.5188279999999996,3.7686660000000005,0.39974699999999996,0.9888459999999999,0.38749600000000006,17.498347000000003,4.690276999999995,15.184832999999998,-1.6631683436506342,-1.479392791608607,-0.750631134353998,-1.2131557180954768,-1.018776763058769,-1.1739416746462648,-1.6115674375366265,-1.0680314043506087,-0.8693959881157314,0,3.272942249097538,0.3123842874391305,3.8835149077336077,0.36641772529256694,1.0799052169262027,0.2910021982438426,10.965631424124439,1.6047256458461403,8.021902480248293,5.808629,0.344783,11.286843,1.138081,2.343053,0.10667599999999999,-13.168857999999998,59.350055000000005,-27.053438,1.3025120000000001,-3.299378,6.459885,0.615028,1.5803120000000002,-0.11809800000000001,-30.667201000000002,58.267683999999996,-52.012415999999995,-0.9050540000000001,-3.510078,-0.694354,0.360159,0.381339,-0.589485,-38.063407,50.691082,-57.423106999999995,3.4211744858144253,2.655407361799353,7.4865332144252985,0.7430184918332786,1.7438343563013088,0.3088683459278403,28.813483745564096,56.491042128000664,48.54142331583901,0.25415478997993396,0.5660887664328614,-0.5810799211265371,0.44641350351058323,-0.5073428641222718,-0.49223510969799,0.31375595340007373,-0.7351124850635319,0.7948182442936812,2.7153758835696395,1.5856639003906723,4.062456278458784,0.28163682077924396,0.7235321488342036,0.25890174656313153,9.800894985554155,3.350887654989644,11.49697553933977,7.3732661890716,2.5143300050021598,16.503551014389195,0.07931929881863997,0.5234987703966401,0.06703011437344,96.05754251786058,11.228448076361994,132.180446552177,2.081146,-2.1299902,6.2884519999999995,1.5866504000000001,-0.16843260000000002,-27.0953742,56.391572,-47.160251599999995
4.242742,2.408689,5.751166000000001,0.327041,1.3611619999999998,0.202137,16.415970999999995,1.9843479999999971,13.090373999999997,-0.9731425909937443,-1.6866938853033824,-1.2632980344097664,-1.7219490835134508,-1.6208363922739395,-0.7932913664848482,-1.6430363537720385,-1.0186807749036866,-0.8999873599709045,0,2.286089595211402,1.8388107449215394,5.814620605961558,0.1899213441905676,1.2283685552806982,0.24559454009767137,13.105268089589641,1.6047256458461192,9.056981219097988,7.139873,0.2107,12.905405,-0.084329,-0.355569,0.38950799999999997,-12.988463000000001,55.561752,-30.718742,0.378303,-1.374342,7.077621000000001,-0.329876,-1.2637209999999999,0.22385700000000003,-27.239690000000003,54.479381000000004,-50.441573999999996,-1.163641,-2.614601,2.250664,-0.457976,-2.1564259999999997,-0.24726399999999998,-36.079059,50.691082,-56.550415,3.589177900903464,1.7690611607917912,7.886683060510902,0.3312110849950527,1.5023683551438372,0.2551627592239902,26.288986372754408,53.64156837840888,48.451660883429795,0.7405426086226572,0.07638992777152918,0.27449985890375517,0.20357370791988297,0.029357886381057793,-0.6755131394733968,0.1508042643139896,-0.6348602485795262,0.726875207217669,3.1305516852150133,1.1780637337260491,3.8923435628901206,0.158482175447714,0.7177865404656177,0.2187979548323064,9.061088239772197,1.7355480808889847,9.682080310502892,9.800353853802559,1.3878341607205598,15.150338411572159,0.025116599934640004,0.5152175176735999,0.04787254503879999,82.10332008893799,3.0121271410774377,93.74267913902777,1.7555181999999998,-1.3197512,6.859258800000001,-1.3198079999999996,0.131284,-24.678077000000002,53.61348460000001,-47.4744222
4.6210450000000005,5.5117335,7.2332515,0.2347615,1.1861899999999999,0.196145,5.231464499999998,6.855022500000004,22.166364499999997,-0.6068035645994065,-1.174359830647482,-0.6998898120319414,4.166762637435506,-0.9249017494507679,0.4865110697240884,0.4158399226461382,-0.5919094266142149,-1.0188612262626215,0,0.7667648023556346,0.8590597556620453,1.959506426325643,0.20571550562430782,0.2767884907750293,0.15280588025249836,1.8721826382578837,2.1396337002607577,4.3991046552411115,8.88773,2.537983,11.703453999999999,2.019334,1.9574209999999999,0.202551,-12.808067,59.891242000000005,-12.56676,8.289149,-4.448653,-1.7095470000000001,0.103427,0.144314,-0.026751,-36.079059,58.087286999999996,-16.057525,-1.412651,-5.377651,-3.955423,-0.18925899999999998,-0.268216,-0.848348,-38.243804,43.475269,-49.394344,7.107686293678873,4.0227656893440855,5.116943716353825,0.5816429028389734,0.8838085181933387,0.32291027085782464,32.90513246108174,55.3983961699486,28.20358291040421,-1.0460727857997434,0.8241170851526542,0.9557440533717274,2.1315814012520917,0.8798117300451217,-1.2913414195242945,1.4351916090015715,-1.1061761010930398,-0.8660678506340052,3.8133043286818413,2.9652537913265458,5.015634072547903,0.5277223139948066,0.7201564240924527,0.2863371716923909,8.467327879903667,6.126896190857981,14.035935660124698,14.541289903143667,8.792730046976454,25.156585149703464,0.27849084068803326,0.5186252751616287,0.08198897589279777,71.69564142579394,37.538856933550036,197.00748985516014,5.998159263157895,-2.7184395789473688,1.0131771052631577,0.5123399473684209,-0.14927178947368416,-31.79704547368421,55.058545578947374,-24.462922947368426
5.207654500000001,2.7391064999999997,7.8246495,0.2527375,0.28656000000000004,0.14208199999999999,2.7059290000000047,6.043243500000003,25.831670000000006,-0.581461156301172,-0.03953522140881205,-0.8087312098821933,2.150593451608736,1.785862258009253,2.427844321378024,0.6899381802666094,1.7140057488141398,-0.8196739745646657,0,0.6744668838447851,1.1430447976057017,0.9513547089684563,0.19860791058879193,0.2155851885928996,0.11095201962408523,1.0698220392381463,2.94199874708715,3.6227933772005243,8.777591000000001,1.9346139999999998,10.41052,1.1063889999999998,2.506573,0.6449090000000001,-15.513997,64.220726,-10.123223,8.126335000000001,-4.788647,-1.857995,-0.015086000000000002,-0.011217,0.020388,-36.800643,60.071636,-13.963066,-1.163641,-5.971443,-4.242742,-0.893942,-1.6847729999999999,-0.596676,-40.228153000000006,45.64001,-57.94671999999999,6.9265285175570295,4.293450512599845,4.892713673303728,0.35475434440512166,0.8211990201623883,0.21691648656656926,34.07025459152019,58.99156970994913,30.215738785187416,-1.0617858270160443,1.0432194109023813,0.9538099147253203,0.3221467186043662,0.5175649002691375,-0.150064123505956,1.5477137909829741,-1.3215118524159808,-0.9469705701164359,3.484393924173533,2.0922828514429024,4.830585244078072,0.3538543500924782,0.8211935064840223,0.21409510667436246,7.5414855977921516,3.941470176249173,17.17397272532972,12.141001018817432,4.377647530442043,23.334553800304807,0.1252129010793701,0.674358775091524,0.045836714701906645,56.87400502170645,15.535187150261686,294.94533917036915,5.986300717948717,-3.7491425384615376,0.7772343846153849,-0.0030092564102564045,0.0348718717948718,-33.22511464102565,58.85974948717949,-24.860521538461544
