IQRAccX,IQRAccY,IQRAccZ,IQRGyroX,IQRGyroY,IQRGyroZ,IQRMagX,IQRMagY,IQRMagZ,KurtosisAccX,KurtosisAccY,KurtosisAccZ,KurtosisGyroX,KurtosisGyroY,KurtosisGyroZ,KurtosisMagX,KurtosisMagY,KurtosisMagZ,Label,MADAccX,MADAccY,MADAccZ,MADGyroX,MADGyroY,MADGyroZ,MADMagX,MADMagY,MADMagZ,MaxAccX,MaxAccY,MaxAccZ,MaxGyroX,MaxGyroY,MaxGyroZ,MaxMagX,MaxMagY,MaxMagZ,MedianAccX,MedianAccY,MedianAccZ,MedianGyroX,MedianGyroY,MedianGyroZ,MedianMagX,MedianMagY,MedianMagZ,MinAccX,MinAccY,MinAccZ,MinGyroX,MinGyroY,MinGyroZ,MinMagX,MinMagY,MinMagZ,RMSAccX,RMSAccY,RMSAccZ,RMSGyroX,RMSGyroY,RMSGyroZ,RMSMagX,RMSMagY,RMSMagZ,SkewAccX,SkewAccY,SkewAccZ,SkewGyroX,SkewGyroY,SkewGyroZ,SkewMagX,SkewMagY,SkewMagZ,StdAccX,StdAccY,StdAccZ,StdGyroX,StdGyroY,StdGyroZ,StdMagX,StdMagY,StdMagZ,VarianceAccX,VarianceAccY,VarianceAccZ,VarianceGyroX,VarianceGyroY,VarianceGyroZ,VarianceMagX,VarianceMagY,VarianceMagZ,meanAccX,meanAccY,meanAccZ,meanGyroY,meanGyroZ,meanMagX,meanMagY,meanMagZ
1.4030735,0.06704100000000002,0.26337600000000005,0.25513450000000004,0.05978899999999987,0.09507650000000012,3.607906,2.5255319999999983,5.061608999999997,-2.0,-2.0,-1.9999999999999998,-2.0,-2.0,-2.0,-2.0,-2.0,-2.0,0,2.0801998838264195,0.09939513533083405,0.39048184190113083,0.37826297571731743,0.08864330404223124,0.14096062982774793,5.349089439759672,3.7443593461068874,7.504352732607923,3.055157,0.608158,7.3697289999999995,-0.11857100000000001,-1.024318,-0.47934399999999994,-33.733921,86.409347,-57.423106999999995,1.6520835,0.541117,7.106353,-0.37370549999999997,-1.084107,-0.5744205,-37.341827,83.883815,-62.48471599999999,0.24900999999999998,0.474076,6.842977,-0.62884,-1.1438959999999998,-0.669497,-40.949733,81.358283,-67.546325,2.1674859024626896,0.5452541640097762,7.111231952199633,0.4524924461474467,1.085754443679601,0.5822357354822014,37.51571709834113,83.92182511621901,62.689390005562636,-1.6077886360610867e-16,1.259380215500691e-15,-5.032427567177339e-15,-3.1336027759216703e-16,0.0,8.199815338751171e-16,0.0,0.0,-2.0821308521869623e-15,1.4030735,0.06704099999999999,0.2633759999999996,0.2551345,0.05978899999999987,0.09507650000000004,3.607906,2.5255319999999983,5.061609000000001,1.96861524640225,0.004494495680999999,0.06936691737599979,0.06509361309024998,0.0035747245209999845,0.009039540852250007,13.016985704836,6.378311883023992,25.619885668881007,1.6520835,0.541117,7.106353,-1.084107,-0.5744205,-37.341827,83.883815,-62.48471599999999
1.6616604999999995,0.09577300000000011,1.1804014999999994,0.262858,0.05819099999999988,0.113452,1.3529644999999988,0.45098500000000286,2.5308060000000054,-2.0,-2.0,-2.0,-2.0,-2.0,-2.0,-2.0,-2.0,-2.0,0,2.4635815437031274,0.14199326227293702,1.75006588262734,0.3897138539519455,0.08627410569705947,0.16820418689389754,2.0059081692593206,0.6686313615127426,3.7521785902072913,5.612295,0.641679,6.062427,0.394362,1.312641,0.312425,-41.851711,76.848396,-43.110960999999996,3.9506344999999996,0.545906,4.882025499999999,0.131504,1.2544499999999998,0.198973,-43.2046755,76.397411,-45.641767,2.288974,0.450133,3.701624,-0.131354,1.196259,0.085521,-44.55764,75.946426,-48.172573,4.285863806731438,0.5542434739038431,5.022700536947479,0.2939177268896859,1.2557989468784403,0.22904499783448667,43.22585450859891,76.39874210334321,45.71187891447829,2.9037858676229855e-16,0.0,1.2150481171551745e-15,-2.865417527044769e-16,5.708617138196215e-15,-1.4849225413525591e-16,0.0,-4.7280708165171633e-14,4.2738399394198986e-15,1.6616604999999998,0.095773,1.1804014999999999,0.26285800000000004,0.05819099999999999,0.11345200000000001,1.3529644999999988,0.45098499999999575,2.530806000000002,2.7611156172602493,0.009172467529,1.3933477012022497,0.069094328164,0.003386192480999999,0.012871356304000001,1.8305129382602467,0.20338747022499618,6.40497900963601,3.9506344999999996,0.545906,4.882025499999999,1.2544499999999998,0.198973,-43.2046755,76.397411,-45.641767
1.3264555000000002,1.1516695,0.9337860000000004,0.10652850000000003,0.026631999999999767,0.019175500000000012,2.9765224999999944,1.713752999999997,7.592415000000003,-2.0,-1.9999999999999998,-1.9999999999999998,-2.0,-2.0,-2.0,-2.0,-2.0,-2.0,0,1.9666058670489575,1.7074677556852373,1.384433195209472,0.15793939043407407,0.03948466228324118,0.02842963884095419,4.412998861931838,2.5408139997706263,11.256531322815219,4.21401,2.044752,6.502983,-0.506599,-1.584389,0.541195,-36.620246,80.095512,-50.616111,2.8875545000000002,0.8930825,5.569197000000001,-0.6131275,-1.611021,0.5220195,-39.596768499999996,78.381759,-58.208526000000006,1.561099,-0.258587,4.635411,-0.7196560000000001,-1.637653,0.502844,-42.573291,76.668006,-65.80094100000001,3.1776493173335694,1.4573740045151415,5.646938242853822,0.6223131467103199,1.611241113510017,0.5223715709918563,39.708484758746444,78.40049166477905,58.70159507734778,-4.756989308448581e-16,-2.907278421133494e-16,-1.4317178966442278e-15,0.0,0.0,0.0,-3.5700851342488984e-15,0.0,1.3637340188822926e-15,1.3264555,1.1516695000000001,0.933786,0.10652850000000003,0.02663199999999999,0.019175500000000012,2.976522499999998,1.713752999999997,7.592415000000006,1.75948419348025,1.32634263723025,0.8719562937959999,0.011348321312250005,0.0007092634239999994,0.00036769980025000047,8.859686193006238,2.9369493450089896,57.644765532225094,2.8875545000000002,0.8930825,5.569197000000001,-1.611021,0.5220195,-39.596768499999996,78.381759,-58.208526000000006
1.9417965000000001,1.2474425,2.126159500000001,0.4591355,0.23542700000000005,0.072572,1.2627679999999941,0.8117790000000014,10.210490999999998,-1.5000000000000004,-1.5000000000000004,-1.4999999999999996,-1.5000000000000002,-1.5000000000000002,-1.5000000000000007,-1.4999999999999882,-1.500000000000018,-1.5000000000000004,0,2.6765714371125333,0.8732571545064551,2.6552723736414827,0.135827119646172,0.24954270980555182,0.09002508930987865,0.26745699241175397,0.26745699241175397,8.798204862675568,6.057639,1.149275,7.661836,0.7054229999999999,1.442606,0.090314,-40.588943,80.275909,-37.176662,4.252319,0.560272,5.200471,0.613809,1.140066,0.0058909999999999995,-40.76934,78.832748,-43.110960999999996,2.1740459999999997,-1.34561,3.4095169999999997,-0.212848,0.9717520000000001,-0.05483,-43.114478999999996,78.652351,-57.597643999999995,4.45360090796193,1.0716659945631382,5.697175782380424,0.5536808251793928,1.2007170781240128,0.0610946025357396,41.506865606123085,79.25699977674944,46.75520559309056,-0.08582021100924435,-0.548317833090974,0.19018868466350747,-0.6810979318701372,0.33238789939061747,0.19677855570791503,-0.6940879342290739,0.674554856946638,-0.4618424073205159,1.5867749807069547,1.0647775925911582,1.743178794014034,0.4129805685617128,0.19481145971083597,0.05951756370648546,1.150388924293092,0.7265747135164818,8.577077945885854,2.517854839397556,1.1337513216842223,3.0386723079002222,0.17055295000955553,0.037951504834666666,0.0035423403895555555,1.3233946771362175,0.5279108143215576,73.56626608980152,4.161334666666666,0.12131233333333336,5.423941333333333,1.184808,0.013791666666666669,-41.49092066666666,79.25366933333333,-45.96175566666667
1.5634934999999999,0.18436300000000005,1.5108180000000013,0.08508950000000004,0.06831100000000001,0.06311750000000002,1.2627655000000004,0.5411835000000167,4.5379965000000055,-2.0,-2.0,-2.0,-2.0,-2.0,-2.0,-2.0,-2.0,-2.0,0,2.318038931719088,0.2733369928103483,2.2399421185581962,0.12615388147153245,0.10127804014833619,0.09357814552652732,1.8721789317523363,0.80235985771863,6.72804367847066,3.237126,1.254626,7.436769,-0.43069799999999997,-1.740187,0.243182,-38.784991999999995,80.997489,-52.885107999999995,1.6736325,1.070263,5.9259509999999995,-0.5157875,-1.808498,0.18006450000000002,-40.047757499999996,80.4563055,-57.423104499999994,0.11013900000000001,0.8859,4.415133,-0.600877,-1.876809,0.11694700000000001,-41.310522999999996,79.915122,-61.961101,2.2903182463575886,1.0860260608926473,6.115510304424726,0.5227589962559229,1.8097876695140234,0.1908062969781134,40.067660993459505,80.45812559518151,57.60213835138356,-1.7429030905247716e-16,8.996888069292598e-16,8.370417621015819e-16,-9.67932445042434e-16,0.0,-3.2338671176731784e-16,0.0,0.0,-2.4330313915328646e-15,1.5634935,0.184363,1.510818,0.08508950000000001,0.06831100000000001,0.0631175,1.2627655000000004,0.5411835000000025,4.537996500000002,2.44451192454225,0.033989715769,2.282571029124,0.007240223010250003,0.004666392721000001,0.00398381880625,1.594576707990251,0.29287958067225267,20.59341223401227,1.6736325,1.070263,5.9259509999999995,-1.808498,0.18006450000000002,-40.047757499999996,80.4563055,-57.423104499999994
1.1109665,1.1588525,1.625746,0.023436500000000082,0.2663199999999999,0.019840999999999998,0.09019700000000341,0.45098899999999276,4.276189500000001,-2.0,-2.0,-2.0,-2.0,-2.0,-2.0,-2.0,-2.0,-2.0,0,1.647121397585404,1.718117287420763,2.410334626326608,0.0347470068940065,0.39484662283241173,0.029416310617369646,0.13372627230254958,0.6686372919216227,6.339888039450362,5.315399,0.81407,4.597102,0.766411,1.8815009999999999,0.178999,-42.753688000000004,78.652351,-32.638664,4.2044325,-0.34478250000000005,2.9713559999999997,0.7429745,1.615181,0.159158,-42.843885,78.20136199999999,-36.9148535,3.093466,-1.503635,1.34561,0.719538,1.348861,0.139317,-42.934082000000004,77.750373,-41.191043,4.3487353576848635,1.2090550397159345,3.3870350655480372,0.7433440503444552,1.6369899221317765,0.1603899443387895,42.843979943418354,78.20266242100179,37.16170348041613,-5.667680752609607e-16,0.0,1.0335039450054059e-16,0.0,0.0,0.0,-1.1812789430641817e-13,4.727945012236712e-14,0.0,1.1109665000000002,1.1588525,1.625746,0.02343649999999997,0.2663199999999999,0.019840999999999998,0.09019699999999986,0.45098899999999986,4.276189500000001,1.2342465641222504,1.34293911675625,2.6430500565159996,0.0005492695322499986,0.07092634239999994,0.0003936652809999999,0.008135498808999976,0.20339107812099988,18.28579663991026,4.2044325,-0.34478250000000005,2.9713559999999997,1.615181,0.159158,-42.843885,78.20136199999999,-36.9148535
1.869967,0.36633150000000003,0.8930830000000007,0.5599379999999998,0.07962950000000024,0.24434899999999998,1.8941495000000046,1.082370499999982,8.465108999999998,-1.5,-1.4999999999999998,-1.5000000000000002,-1.5,-1.5000000000000018,-1.4999999999999998,-1.4999999999999976,-1.5000000000000266,-1.4999999999999996,0,1.3418350682673688,0.41177942276996443,0.930055645497406,0.7999602660279751,0.07225610172108918,0.18834237282785915,2.4070847622636524,0.2674569924117329,9.57452651893169,5.042446,0.014366,7.187760000000001,0.047879000000000005,-1.365208,0.323345,-38.784991999999995,82.62104699999999,-43.634578000000005,4.137392,-0.44055600000000006,6.560447,-0.49168599999999996,-1.413944,0.19630999999999998,-40.408546,82.44065,-54.106876,1.3025120000000001,-0.7182970000000001,5.401594,-1.0719969999999999,-1.524467,-0.165353,-42.573291,80.45630600000001,-60.564795999999994,3.840174116483262,0.4865684437298279,6.426003848900315,0.68147513753768,1.4360861339637674,0.23834933727199661,40.61859713991799,81.84521031590536,53.22789037788076,-0.5398373952594697,0.2858578527453725,-0.3454724771502978,-0.04452555956144783,-0.4341334238045698,-0.5127356057748093,-0.1728022344066278,-0.6892051043758877,0.28066238153226786,1.593137145581077,0.3020097792261407,0.7398836886921261,0.45728832399045566,0.06662828920878046,0.20703294209108097,1.5518182102632603,0.9807178654789263,6.976197927036757,2.538085964630222,0.09120990674822223,0.5474278727926669,0.20911261125799996,0.00443932892288889,0.04286263911088888,2.4081397577046686,0.9618075316695412,48.667337517191946,3.4941166666666668,-0.38149566666666673,6.383267,-1.4345396666666668,0.11810066666666667,-40.58894299999999,81.83933433333333,-52.768750000000004
1.0989944999999999,0.09577300000000011,1.304906,0.22597299999999998,0.07563449999999994,0.08389100000000005,1.533360000000009,3.878497999999979,5.3234185000000025,-2.0,-2.0,-2.0,-2.0,-2.0,-2.0,-2.0,-2.0,-2.0,0,1.6293716838254546,0.14199326227293702,1.9346565305412708,0.3350280711223664,0.11213587749556195,0.12437698271265345,2.2733629377677524,5.75026973926953,7.8925120781337625,6.5269260000000004,-1.034348,2.5619259999999997,0.805294,1.056441,0.44904799999999995,-39.867362,78.652351,-29.846052,5.427931500000001,-1.130121,1.2570199999999998,0.579321,0.9808064999999999,0.36515699999999995,-41.400722,74.773853,-35.1694705,4.328937000000001,-1.225894,-0.047886,0.353348,0.905172,0.28126599999999996,-42.934082000000004,70.89535500000001,-40.492889,5.538070898762719,1.134171919141891,1.8118716701896962,0.621833271681405,0.9837184394086043,0.3746696338509434,41.42910782301357,74.87437371492074,35.57007787138668,0.0,-3.517433201801029e-15,0.0,0.0,2.12994985073479e-15,0.0,0.0,0.0,1.97818846716237e-15,1.0989944999999999,0.095773,1.304906,0.22597299999999998,0.0756345,0.083891,1.5333600000000018,3.8784979999999933,5.323418499999999,1.2077889110302498,0.009172467529,1.7027796688359997,0.051063796728999994,0.005720577590249999,0.007037699880999999,2.351192889600006,15.042746736003949,28.33878452614224,5.427931500000001,-1.130121,1.2570199999999998,0.9808064999999999,0.36515699999999995,-41.400722,74.773853,-35.1694705
0.0,0.0,0.0,0.0,0.0,0.0,0.0,0.0,0.0,-3.0,-3.0,-3.0,-3.0,-3.0,-3.0,-3.0,-3.0,-3.0,0,0.0,0.0,0.0,0.0,0.0,0.0,0.0,0.0,0.0,2.715163,1.019982,5.444692,-0.748951,-1.735393,-0.047906,-37.702617,78.471954,-60.91387099999999,2.715163,1.019982,5.444692,-0.748951,-1.735393,-0.047906,-37.702617,78.471954,-60.91387099999999,2.715163,1.019982,5.444692,-0.748951,-1.735393,-0.047906,-37.702617,78.471954,-60.91387099999999,2.715163,1.019982,5.444692,0.748951,1.735393,0.047906,37.702617,78.471954,60.91387099999999,0.0,0.0,0.0,0.0,0.0,0.0,0.0,0.0,0.0,0.0,0.0,0.0,0.0,0.0,0.0,0.0,0.0,0.0,0.0,0.0,0.0,0.0,0.0,0.0,0.0,0.0,0.0,2.715163,1.019982,5.444692,-1.735393,-0.047906,-37.702617,78.471954,-60.91387099999999
