IQRAccX,IQRAccY,IQRAccZ,IQRGyroX,IQRGyroY,IQRGyroZ,IQRMagX,IQRMagY,IQRMagZ,KurtosisAccX,KurtosisAccY,KurtosisAccZ,KurtosisGyroX,KurtosisGyroY,KurtosisGyroZ,KurtosisMagX,KurtosisMagY,KurtosisMagZ,Label,MADAccX,MADAccY,MADAccZ,MADGyroX,MADGyroY,MADGyroZ,MADMagX,MADMagY,MADMagZ,MaxAccX,MaxAccY,MaxAccZ,MaxGyroX,MaxGyroY,MaxGyroZ,MaxMagX,MaxMagY,MaxMagZ,MedianAccX,MedianAccY,MedianAccZ,MedianGyroX,MedianGyroY,MedianGyroZ,MedianMagX,MedianMagY,MedianMagZ,MinAccX,MinAccY,MinAccZ,MinGyroX,MinGyroY,MinGyroZ,MinMagX,MinMagY,MinMagZ,RMSAccX,RMSAccY,RMSAccZ,RMSGyroX,RMSGyroY,RMSGyroZ,RMSMagX,RMSMagY,RMSMagZ,SkewAccX,SkewAccY,SkewAccZ,SkewGyroX,SkewGyroY,SkewGyroZ,SkewMagX,SkewMagY,SkewMagZ,StdAccX,StdAccY,StdAccZ,StdGyroX,StdGyroY,StdGyroZ,StdMagX,StdMagY,StdMagZ,VarianceAccX,VarianceAccY,VarianceAccZ,VarianceGyroX,VarianceGyroY,VarianceGyroZ,VarianceMagX,VarianceMagY,VarianceMagZ,meanAccX,meanAccY,meanAccZ,meanGyroY,meanGyroZ,meanMagX,meanMagY,meanMagZ
0.8200552500000002,2.35481725,2.35122625,0.17590450000000002,0.19594499999999998,0.09381125000000004,1.0372732499999984,1.4882589999999993,10.079587250000003,-1.0405591108522554,-1.8461971843836993,-1.6291282004038639,-0.9499004223509426,-1.096273091640058,-1.1214476586854614,-0.6666666666666718,-0.9587783774692564,-1.2630419986253916,0,0.7490136059934673,1.9133582083713288,1.6329217748376652,0.0874587048696456,0.11371559015937965,0.10404161068363062,0.0,1.4709971496402634,9.056981219097981,4.965827,-0.416612,8.519003999999999,1.0774290000000002,0.693138,-0.148386,-21.827831,105.892044,-40.318351,3.59388,-1.953768,7.3050820000000005,1.014311,0.6059185,-0.26676449999999996,-25.976924,104.08809249999999,-52.7105705,2.76305,-3.5723309999999997,5.047235,0.702983,0.30644099999999996,-0.391802,-25.976924,101.02136899999999,-61.786563,3.8141291158068116,2.384800407738717,7.189091193053559,0.9641980652153374,0.573885996511938,0.2823204308693404,25.004279372088938,103.78724519580776,52.48737397082257,0.4669430687067966,-0.01784239907213693,-0.2687821102834126,-0.8616824015882385,-0.7201164831766849,-0.053474789534566365,1.1547005383792484,-0.5163805044583443,0.26055426870773757,0.8005949039212577,1.3379552299724708,1.436550314430263,0.1512668441620635,0.15394022111358682,0.0874674992822334,1.7966099703320944,1.7553823934183848,7.95191532660803,0.6409522001846877,1.7901241974106872,2.0636768058896875,0.022881658142750005,0.023697591676500006,0.0076505634306875,3.2278073854966887,3.0813673471232566,63.2329573615437,3.7291592500000004,-1.97411975,7.04410075,0.552854,-0.26842924999999995,-24.93965075,103.77239949999999,-51.881513749999996
0.6069612499999999,1.1804012499999998,0.6919590000000007,0.28170025,0.031559000000000004,0.0356865,1.3529655000000034,0.5411872500000072,4.450725500000011,-1.368448559889555,-1.3716337677987982,-1.0663564272631645,-1.2997506598506814,-0.8418236175241067,-1.3117151062273338,-1.8815431661843078,-0.6838136106997181,-1.1920990507581066,0,0.3975812826244457,1.1501449796301242,0.7135156610757877,0.27441855112874813,0.016583647115094413,0.030205054997614625,0.9360913191289418,0.1337284962058875,2.4583227536340972,4.113448,-0.028732,8.17901,-0.05789400000000001,-0.233656,-0.0019100000000000002,-24.714157,102.284141,-57.94671999999999,3.3831795,-1.2115275,7.360151,-0.36975500000000006,-0.24857,-0.030805,-25.706331000000002,102.10374399999999,-59.6048335,3.0791,-2.365592,6.273128,-0.650989,-0.31515,-0.07355,-26.337715000000003,100.119392,-65.80094100000001,3.514292175447461,1.487312486787242,7.325183628869791,0.42320221945572317,0.26343877482918115,0.043566153869718634,25.626612076686555,101.65663681259652,60.82466035484104,0.47817096823685473,0.019568000033546622,-0.27797945192024215,0.08744208901162762,-0.947709690667959,-0.30479228358487714,0.08952072907950677,-1.1304881584264528,-0.6455385938231433,0.41479718507445007,0.8727268510253867,0.6847347841040355,0.2190547326564471,0.03201247258882074,0.026902568776048134,0.7327694311000914,0.8883457276036633,3.220691769720993,0.17205670474568757,0.7616521565006875,0.46886172456200015,0.04798497589918751,0.0010247984012499993,0.00072374820675,0.5369510391547516,0.7891581317516819,10.372855475548544,3.48972675,-1.20434475,7.2931099999999995,-0.2614865,-0.0342675,-25.616133500000004,101.65275525,-60.739332
0.2933045000000005,1.8699672500000002,1.4557487500000015,0.3469484999999999,0.029761499999999996,0.14114950000000004,1.849052749999995,1.1274705000000012,5.628859500000004,-0.9869986518350431,-1.785320265838145,-1.3180511486800164,-1.8948271839541762,-1.011831078434674,-1.2339129434393579,-0.9711542237382527,-1.3089555306126006,-0.9842130371507118,0,0.3017354970047142,1.5512756119656723,0.97620312215061,0.25309650732330974,0.03968184837830245,0.13207613603335308,1.069818332732599,1.0698168501303946,5.951730917827844,5.253146,-0.6512560000000001,7.144661999999999,0.9655739999999999,0.505649,-0.187002,-24.172971,104.268486,-38.398429,4.8868145,-1.939402,6.3641125,0.7843435000000001,0.4541155,-0.36303949999999996,-27.4200865,103.0057175,-49.3943415,4.324148999999999,-3.3041669999999996,4.539638,0.538929,0.403382,-0.499129,-28.322063,101.92334699999999,-56.724952,4.849201814117505,2.244918269711116,6.189379221909597,0.791278980803547,0.45575633967889023,0.37122636762829764,26.88298640652364,103.05447813094295,48.920180670491455,-0.4255757542778788,-0.024198882434625174,-0.5052347383933482,-0.0703940403041835,0.016470028989466992,0.2240375389117269,0.8213488495223352,0.12846603226321335,0.4059853342121232,0.33334217506865255,1.0971387764144458,1.0296621280204918,0.1893181897104713,0.036211429373196526,0.11472989264463729,1.6254358723221554,0.8686647647455846,6.56247221230456,0.1111170056795002,1.2037134947121872,1.0602040978796876,0.03584137695525,0.00131126761725,0.013162948266249998,2.6420417750316862,0.7545784735105019,43.066041537269506,4.837731,-1.95855675,6.10313125,0.4543155,-0.3530525,-26.833801750000003,103.050817,-48.478016000000004
0.9720949999999995,1.331244,0.9481520000000003,0.08415700000000001,0.063917,0.03648600000000001,0.7215820000000015,0.5411829999999895,6.806992000000008,-1.2526116603797999,-1.2273330550508295,-1.2760989830744909,-1.1996829079687845,-0.7673321813629004,-1.318438687460968,-0.7286815486454086,-0.41827073167613626,-1.3712351208246034,0,0.8093614466955185,1.0578500263237138,1.2566402969853823,0.09673682955305352,0.07502115485860197,0.0347477481951158,1.0698190740337115,0.5349139848235079,5.434186359295251,4.764704,-0.373515,7.379306,-0.10663099999999999,-0.119671,-0.032004000000000005,-27.420084999999997,101.201766,-49.917957,4.099082,-1.3934959999999998,6.483829,-0.226208,-0.232857,-0.05757,-28.322063,100.660583,-57.074028000000006,3.036002,-3.012059,5.636238,-0.302642,-0.36095700000000003,-0.101513,-29.584829,99.037025,-61.961101,4.093610682611061,1.7997288226767942,6.6766545756676825,0.21914510027741893,0.24193051977954336,0.06809949129765949,28.260177723962617,100.41078830446317,56.68659386535859,-0.36973463711167415,-0.34189922109257537,-0.23055489492874048,0.16658311800314912,-0.37471407074535446,-0.30102156581643646,-0.6937061700616224,-0.9594488799451005,0.246006306238641,0.6383438172685312,0.9438615362105608,0.6521611016255416,0.0680503657671287,0.07982276031909698,0.0250547078609989,0.761943357983624,0.7446622663906108,4.400857965496983,0.40748282904495997,0.8908745995377598,0.42531410247344004,0.004630852281040002,0.006371673064960002,0.0006277383860000001,0.580557680775361,0.554521890986001,19.367550832478248,4.0435338000000005,-1.5323672,6.644727399999999,-0.22838280000000002,-0.06332299999999999,-28.249904199999996,100.40802699999999,-56.515505600000004
0.6368897499999999,1.188782,0.3962602499999983,0.23615900000000006,0.19075200000000003,0.022904000000000008,1.2176692500000001,1.9843520000000012,5.236150750000007,1.7162451421593516,0.33561533302158164,5.585421622606587,-0.7348429520310047,0.8431790282966887,4.905433028614613,-0.3997926223134112,-0.8733588794462892,1.2947963717468616,0,0.14909270299625105,0.2094405436983031,0.2946360562814,0.05823958034733707,0.07660012622131043,0.01678083321015565,0.9360898365267166,1.4709971496402423,2.1995560341260956,6.244396,0.244221,7.5038100000000005,0.6742199999999999,0.654255,-0.0858,-25.255342000000002,102.284141,-41.365581,3.0791,0.009576999999999999,6.9938195,0.230797,0.06915,-0.125083,-27.510282999999998,99.3076165,-63.00833050000001,2.945018,-3.308955,4.242742,0.17247300000000002,0.0031030000000000003,-0.293796,-29.043643,98.315444,-65.10279,3.682596496598,1.2474323016375752,6.848162941257222,0.35958943781826314,0.2356780603533326,0.1449953250873345,27.35327357752862,99.61885760580222,59.99889076052884,1.7404902166599305,-1.3228384983792678,-2.404461205148948,0.8576629605513214,1.3973074070545106,-2.34151921689132,0.26594495404271407,0.6283152097561335,1.5858813533019582,0.9309953504554042,1.0924031880201157,0.71473760122336,0.15552914666320625,0.1779351521423159,0.045789339561781536,0.9113204703598141,1.2505683455006993,6.795944758617861,0.8667523425695808,1.1933447251965124,0.5108498386025229,0.02418931546178512,0.0316609183679091,0.002096663617504132,0.8305049996968329,1.5639211867683565,46.18486516218558,3.562971318181818,-0.6022811818181819,6.810762500000001,0.15454199999999998,-0.13757536363636363,-27.33808827272727,99.61100777272728,-59.6127673181818
0.30168450000000036,0.8092815,0.6704110000000005,0.15766149999999998,0.13089599999999998,0.035420499999999994,0.4509885000000011,0.6313820000000021,2.268999000000008,-1.4999999999999962,-1.5,-1.499999999999999,-1.5,-1.5000000000000007,-1.5000000000000002,-1.499999999999993,-1.499999999999978,-1.5,0,0.29818540599250276,0.6744668838447869,0.028397762893255483,0.16623084334106664,0.15872739351320977,0.016584388416203657,0.2674540272073192,0.267456992411775,1.2938550952720917,3.71599,-0.244221,8.293938,-0.055497000000000005,-0.036313,0.022858,-27.600481,100.840972,-58.12125699999999,3.5148669999999997,-0.699142,6.97227,-0.25869899999999996,-0.191045,-0.036797,-28.322063,99.758605,-61.786563,3.112621,-1.862784,6.9531160000000005,-0.37082,-0.298105,-0.047983,-28.502458,99.57820799999999,-62.659255,3.456938973399733,1.1573544060573377,7.432984564542923,0.26300352469754723,0.20549405264629922,0.037322359973613675,28.144365428086985,100.06081553059298,60.887442930290206,-0.38180177416061234,-0.47827970025790123,0.706612850226383,0.33635874624201045,0.2185689442069204,0.6390981237039334,0.5951705878298152,0.6520107422522647,0.6040603984485985,0.25084445286671186,0.6815637253465168,0.6276036270010629,0.13050788216894113,0.1074651812800572,0.03109536032200874,0.38969866524990343,0.5576373094478361,1.96608706850559,0.06292293953400004,0.4645291117082222,0.3938863126248892,0.017032307308222222,0.011548765187555557,0.0009669214335555555,0.1518650496975563,0.31095936888822173,3.8654983609449047,3.4478260000000005,-0.9353823333333334,7.406441333333333,-0.17515433333333333,-0.020640666666666665,-28.141667333333334,100.05926166666666,-60.855691666666665
0.7135087500000008,1.3348357499999999,1.0906142499999998,0.17776875000000003,0.13442575,0.03435574999999996,0.7666794999999986,1.4882645000000139,8.159665499999996,-1.249868651081294,-1.4128331319079337,-0.8789193811094247,-1.1328457851623202,-1.448129198494308,-1.0868245834226673,-1.1149979503677163,-1.7486560916379563,-1.1355628724803044,0,0.5537734263440116,1.2743892694442214,0.7170657520879997,0.15438485161520682,0.09239428765505063,0.037313391334239734,0.8023635642241697,1.203545346336261,7.374968260902271,5.23878,-0.656045,7.728877000000001,0.9522579999999999,0.63002,-0.128145,-28.322063,102.825325,-39.794734000000005,4.304994000000001,-1.9537679999999997,6.984242,0.7925995,0.5578475,-0.171156,-29.404434000000002,101.652755,-51.576072499999995,3.7926089999999997,-3.2083939999999997,4.702452,0.5328039999999999,0.40710999999999997,-0.221624,-30.306410999999997,100.660583,-59.343025,4.444231126101145,2.1673788627574435,6.6990117323701,0.7829156940892487,0.545563166918598,0.1762344837319019,29.368028375725412,101.70172432903676,51.07572284810886,0.44976260072652574,0.025778949356464527,-0.854037861630498,-0.42567618142384916,-0.40014671252389605,-0.15842983698922006,0.17653206854222409,0.0748706464029238,0.37350004015970983,0.5477717578500991,0.9603678577444621,1.1477697017462554,0.15427433695753648,0.08929278559428809,0.03350501971626788,0.7144995982173457,0.8871987354695431,7.152211943605521,0.30005389869818766,0.9223064221886873,1.317375288246688,0.023800571043687505,0.007973201559187503,0.0011225863461874993,0.5105096758527484,0.7871215962187563,51.15413568625346,4.41034425,-1.9429937499999999,6.59995325,0.53820625,-0.17302025,-29.3593355,101.6978545,-50.572475999999995
0.7254795,1.28335775,0.8451957500000002,0.13056375000000003,0.08302549999999997,0.029094999999999996,0.766679749999998,0.8568802500000032,6.588821500000002,-1.097059322073302,-1.1935289658948114,-0.9857930449284469,-0.7356593065140848,-0.9726169664825113,-0.8378950774974006,-0.707527435597302,-0.6975817851082571,-1.0889624773587352,0,0.6141205257449533,0.944255268245142,0.6780169748569985,0.05251451188057775,0.06534717538285297,0.017570318891509888,0.26745402720731914,0.26745699241175397,5.82234570482108,4.716818,-0.2107,7.6809899999999995,-0.08133,-0.184387,-0.020286000000000002,-27.059295000000002,100.660583,-47.823496999999996,4.0799275,-1.070263,6.953116,-0.42554899999999996,-0.33778699999999995,-0.0383955,-29.3142365,100.3899875,-58.0339905,2.964173,-2.858823,5.420749,-0.474951,-0.407829,-0.103111,-29.584829,97.774253,-64.230102,4.0124708655236985,1.6470687839852802,6.803372834008712,0.38577719785680703,0.3275588183624431,0.059275587449640676,28.836317150384094,99.81066197011096,57.34540011131093,-0.4882669202842063,-0.5377750524757805,-0.6447909246921844,1.0686181171345324,0.6717211996904576,-0.9182798109690734,1.1012039835910048,-1.114303451459325,0.44929733802553307,0.6454822398364264,1.0081157759794692,0.834551270129755,0.1582065683961557,0.08269861988419153,0.03176307696839209,1.023455227286561,1.17862644692718,6.002412854037494,0.4166473219442499,1.0162974177786874,0.6964758224751874,0.025029318283687495,0.006839061730749999,0.0010088930584999998,1.047460602260186,1.389160301396189,36.028960070314525,3.9602115,-1.30251225,6.751992749999999,-0.3169475,-0.050046999999999994,-28.818149250000005,99.80370275000001,-57.030395000000006
