IQRAccX,IQRAccY,IQRAccZ,IQRGyroX,IQRGyroY,IQRGyroZ,IQRMagX,IQRMagY,IQRMagZ,KurtosisAccX,KurtosisAccY,KurtosisAccZ,KurtosisGyroX,KurtosisGyroY,KurtosisGyroZ,KurtosisMagX,KurtosisMagY,KurtosisMagZ,Label,MADAccX,MADAccY,MADAccZ,MADGyroX,MADGyroY,MADGyroZ,MADMagX,MADMagY,MADMagZ,MaxAccX,MaxAccY,MaxAccZ,MaxGyroX,MaxGyroY,MaxGyroZ,MaxMagX,MaxMagY,MaxMagZ,MedianAccX,MedianAccY,MedianAccZ,MedianGyroX,MedianGyroY,MedianGyroZ,MedianMagX,MedianMagY,MedianMagZ,MinAccX,MinAccY,MinAccZ,MinGyroX,MinGyroY,MinGyroZ,MinMagX,MinMagY,MinMagZ,RMSAccX,RMSAccY,RMSAccZ,RMSGyroX,RMSGyroY,RMSGyroZ,RMSMagX,RMSMagY,RMSMagZ,SkewAccX,SkewAccY,SkewAccZ,SkewGyroX,SkewGyroY,SkewGyroZ,SkewMagX,SkewMagY,SkewMagZ,StdAccX,StdAccY,StdAccZ,StdGyroX,StdGyroY,StdGyroZ,StdMagX,StdMagY,StdMagZ,VarianceAccX,VarianceAccY,VarianceAccZ,VarianceGyroX,VarianceGyroY,VarianceGyroZ,VarianceMagX,VarianceMagY,VarianceMagZ,meanAccX,meanAccY,meanAccZ,meanGyroY,meanGyroZ,meanMagX,meanMagY,meanMagZ
4.25471375,1.6484917499999996,0.9565327499999992,0.22504074999999996,0.23642549999999996,0.0923465,5.682452500000004,0.36079199999999645,5.8470317500000135,-1.563879115643631,-1.6933569209551538,-1.0132193952816,-1.4325465777240447,-1.2543971037020818,-0.9868445338955207,-1.0596088074777117,-0.7820090867776135,-0.7974236370417347,0,3.883514166432498,1.25309020597317,0.9158560227496675,0.18755214584539565,0.17294258358424142,0.11549248891825863,3.744363052612438,0.13372849620587698,2.3289382819284405,4.137392,2.8684,7.590006,0.564806,1.385879,0.160889,-17.498344,41.310522999999996,-47.125343,0.53154,1.8699664999999999,6.5341095,0.39316300000000004,1.0749505,0.0088205,-20.8356575,40.4987445,-59.95390999999999,-3.083889,0.42618999999999996,4.841322,0.152809,0.92195,-0.18612599999999999,-29.945621000000003,40.408546,-61.612026,2.851594628767692,2.0224070928985216,6.451748943228514,0.407660987186964,1.128559291163074,0.12319858365866063,22.787361752516183,40.680839421215886,57.46778300251254,-0.001692831558735917,-0.16973066695082276,-0.452969707365821,-0.23597263935337257,0.4972751627109119,-0.25884474467216206,-0.7062909463287151,1.027207473002932,1.0111371151337374,2.802070074440268,0.9986732871969127,0.9929165882009864,0.15755180816698838,0.17800639486897657,0.12318394706494837,4.787278459379349,0.3718945472741547,5.927240497989909,7.851596702073687,0.9973483345606873,0.9858833511246873,0.024822572256687506,0.031686276614250004,0.0151742848145,22.918035047637513,0.1383055542922485,35.13217992101167,0.5291457500000001,1.75863075,6.37488675,1.1144325,-0.0018989999999999957,-22.278820000000003,40.6791395,-57.161297250000004
4.9610385,1.3815250000000003,2.284185,0.5041439999999999,0.3917569999999997,0.04474199999999995,8.117788999999998,1.082373000000004,5.410686499999997,-1.5,-1.4999999999999991,-1.5000000000000004,-1.4999999999999991,-1.5000000000000013,-1.4999999999999996,-1.5000000000000002,-1.4999999999999938,-1.4999999999999984,0,7.16355585625335,1.4909285125647298,2.655273856243702,0.034746265592897306,0.09634393996514923,0.05212088099156442,9.628362770690067,0.0,4.65787063344798,2.90192,3.534022,7.853382000000001,-0.33721999999999996,-1.939927,0.361695,-11.725695,46.361595,-56.375877,-1.929825,2.528406,6.062427,-0.360656,-2.658458,0.32654,-21.467041000000002,44.196849,-64.055564,-7.020157000000001,0.770972,3.285012,-1.345508,-2.723441,0.27221100000000004,-27.961273,44.196849,-67.19725,4.525040276862149,2.5479760740702937,6.033791892566315,0.8274824986668902,2.4662959124683312,0.3222579055901241,21.448842706225705,44.93002119593545,62.707854889266,-0.03190578792336167,-0.3186401239899648,-0.25707567720994723,-0.7057877501836366,0.689380904706785,-0.255209849807623,0.23906303483401803,0.7071067811865543,0.46232551162053703,4.051129494202519,1.1418446628305738,1.879466778730074,0.4698850212722257,0.355027976432218,0.036810174502287914,6.6721882480406345,1.0204710507643031,4.545448235392484,16.41165017879756,1.3038092340346668,3.532395372350001,0.220791933216,0.12604486404955553,0.0013549889468888875,44.518096017291555,1.041361165448001,20.661099660632647,-2.0160206666666665,2.2778000000000005,5.733606999999999,-2.4406086666666664,0.3201486666666667,-20.384669666666667,44.918431,-62.542897
5.904402,1.9825,3.9266909999999995,0.471919,0.22317600000000004,0.57179,11.184509000000006,5.051071,17.453830999999994,-1.2536586145233324,-1.1569424380064692,-1.2322596332789404,-1.157576792044933,-0.23365863020113586,-1.741064133527505,-1.4480094684591949,-1.1314152922979703,-1.4221134092210637,0,5.133053540092347,1.2566402969853816,2.54167835686402,0.5425197342044439,0.19584285745127888,0.4110351564562746,9.093451751071004,2.674547685084276,11.385915053219774,7.264378,3.299378,7.374517,0.416466,2.382716,-0.101969,-18.039529,48.706733,-31.416896,3.227548,2.451787,5.660181,-0.130023,1.756863,-0.379208,-28.141668,41.851711,-52.710570999999995,-4.046407,-1.034348,0.296896,-0.659201,1.5997350000000001,-0.731017,-35.357479,40.047756,-60.390254000000006,4.727851034331285,2.232782524089124,5.315659887423329,0.3837315848900114,1.8642870076270983,0.48838157722952646,28.5499148726926,43.27923583245853,49.54478272491535,-0.3794821552990868,-0.6035244179927349,-0.5573896540600495,-0.20950093826255972,1.1473301395030322,-0.08040541574483698,0.22354720809265446,0.6308188220450817,0.43482893845132053,4.087370521937036,1.5821592314469488,2.652310750093857,0.3764153272878245,0.28479405172130956,0.26919785827483844,6.581833678661793,3.3349241898068147,10.982551612510399,16.706597783599836,2.5032278336528,7.034752315063439,0.14168849861720004,0.08110765189583993,0.07246748689976,43.32053457356663,11.121719351758639,120.61643992145477,2.3761265999999996,1.575465,4.6066786,1.8424056,-0.40749120000000005,-27.7808766,43.1505566,-48.312204
4.0296465,1.324061,2.2482705000000003,0.13569000000000003,0.3788404999999999,0.10999050000000002,6.584429,0.3607900000000086,5.148878000000003,-1.5000000000000004,-1.5000000000000004,-1.4999999999999998,-1.5000000000000002,-1.5000000000000004,-1.5,-1.4999999999999998,-1.4999999999999838,-1.4999999999999996,0,4.1674999496772624,1.1075468526880212,0.34078353293460467,0.16228119103096772,0.2862638015534986,0.12319238354006748,7.48872758782709,0.2674510620028844,6.9868103979786245,2.959384,2.039964,9.232513,-0.17583,-2.1724240000000004,0.367554,-14.792415,45.27922,-57.423106999999995,0.148448,1.292935,4.965827,-0.285287,-2.7370229999999998,0.230665,-22.910203,45.098827,-63.008331000000005,-5.099908999999999,-0.608158,4.735972,-0.44721000000000005,-2.9301049999999997,0.147573,-27.961273,44.55764,-67.720863,3.4053419934196034,1.4379372017448004,6.641489915018618,0.3226461660338355,2.6328841124851405,0.26462556910346613,22.55013474323352,44.979607390290134,62.85851381847908,-0.3504916894483911,-0.4765249212438157,0.7005584586894643,-0.23145805161798372,0.5206629588531451,0.2888444030437587,0.27597863503932907,-0.5280091476682435,0.1033379095320721,3.3399736535120885,1.1147873264226977,2.06764287987559,0.11147844693432402,0.32147804267269403,0.09069761674315863,5.424539009415229,0.30661280320770945,4.209070412239844,11.155424006154888,1.2427507831526665,4.275147078700223,0.012427444130888895,0.1033481319206665,0.008226057682888888,29.42562346466755,0.09401141109088955,17.71627373519289,-0.6640256666666664,0.9082469999999999,6.311437333333334,-2.613184,0.24859733333333334,-21.887963666666668,44.978562333333336,-62.717433666666665
3.8093689999999993,1.0080105,2.8827655,1.2232085000000001,0.8017565000000002,0.15686250000000002,2.1647435,0.18039549999999593,11.344991499999999,-1.5000000000000002,-1.5,-1.5000000000000004,-1.4999999999999998,-1.5000000000000009,-1.4999999999999998,-1.5000000000000024,-1.5000000000000397,-1.5000000000000004,0,5.069156349679191,1.2992384239274848,3.329739257486269,1.3930189446568382,0.38102728755372084,0.09476348600022257,2.1396337002607577,0.0,12.421007135489422,7.2691669999999995,0.60337,5.281878,1.319558,2.9920560000000003,0.066612,-32.65155,47.804756,-33.685894,3.8500730000000005,-0.536328,1.7622220000000002,-0.187282,1.6455419999999998,0.002695,-35.537876000000004,47.804756,-47.998034999999994,-0.349571,-1.412651,-0.483653,-1.126859,1.388543,-0.247113,-36.981037,47.443965000000006,-56.375877,4.753456667284661,0.9393767310092722,3.2268447854716635,1.0076571951427729,2.128243347908395,0.14777150868598904,35.10299818908752,47.68479564585304,46.9637815270434,-0.12467554220856933,0.15834531155071452,0.26267916706183153,0.27486888895451467,0.6369315493562695,-0.590712928115501,0.38180238642578124,-0.7071067811865057,0.3073130253337375,3.1157731735338,0.8253749453681979,2.3728389135267673,1.0076555773134435,0.7031992272911632,0.13536485485859648,1.7999397870597418,0.1700785084607133,9.368154953654514,9.708042468912888,0.6812438004415556,5.630364509546889,1.0153697624908888,0.49448915326288906,0.018323643930888887,3.2397832370406685,0.02892669904022092,87.7623272356816,3.5898896666666666,-0.44853633333333337,2.1868156666666665,2.008713666666667,-0.059268666666666664,-35.056821,47.68449233333333,-46.01993533333333
2.7007970000000006,0.42618949999999955,1.5970139999999997,0.2830985,0.3231795000000002,0.12024350000000006,8.207986499999997,0.6313839999999971,6.894264500000006,-2.0,-2.0,-1.9999999999999998,-2.0,-2.0,-2.0,-2.0,-2.0,-1.9999999999999998,0,4.004207623933274,0.6318694982037932,2.367736499384505,0.41972246415560815,0.47914664367553145,0.17827327986087835,12.169178994364032,0.9360913191289366,10.221451842664418,2.916286,2.940229,5.569197,0.030835,-2.1942619999999997,1.071704,-13.529648000000002,41.490921,-49.219802,0.21548899999999982,2.5140395,3.9721830000000002,-0.2522635,-2.5174415,0.9514605,-21.737634500000002,40.859537,-56.11406650000001,-2.4853080000000003,2.08785,2.375169,-0.535362,-2.840621,0.831217,-29.945621000000003,40.228153000000006,-63.008331000000005,2.7093799926053195,2.549908252755479,4.281202109417984,0.3791854877688491,2.5381010017614547,0.9590284575300673,23.2356578568323,40.86441495494368,56.536000408256534,0.0,0.0,-4.361180308017366e-16,-3.05828209687292e-16,0.0,-1.3719810942757122e-15,0.0,0.0,1.5612012007535452e-15,2.700797,0.4261895,1.597014,0.28309850000000003,0.3231795000000002,0.1202435,8.2079865,0.6313839999999971,6.894264500000002,7.294304435209001,0.18163748991025,2.5504537161959995,0.08014476070225,0.10444498922025011,0.014458499292250002,67.37104238418226,0.3986457554559963,47.530882995960276,0.21548899999999982,2.5140395,3.9721830000000002,-2.5174415,0.9514605,-21.737634500000002,40.859537,-56.11406650000001
3.7686655,0.34957150000000015,2.9306520000000003,0.445287,0.4325039999999998,0.29428400000000005,5.6824525,1.8941499999999962,7.2433394999999905,-1.5000000000000002,-1.5,-1.4999999999999991,-1.5000000000000004,-1.4999999999999991,-1.5,-1.4999999999999993,-1.5000000000000007,-1.4999999999999998,0,4.877466261041948,0.12779438082630845,4.082303695793058,0.052119398389345956,0.38339648589889275,0.30245381777957986,5.88399897677652,2.6745432372776214,9.833291014536346,5.693702,2.1740459999999997,7.561274000000001,0.578655,2.257812,-0.015147999999999998,-19.663087,42.934082000000004,-43.285503000000006,2.403901,2.08785,4.807802,0.543501,1.9992150000000002,-0.21915,-27.059295000000002,41.13013,-49.917957,-1.8436290000000002,1.474903,1.69997,-0.311919,1.3928040000000002,-0.603716,-31.027991999999998,39.145782000000004,-57.772181999999994,3.7236160906770004,1.9374323637248174,5.265539623349159,0.4924525048458988,1.9178528468042069,0.37091292466920944,26.341214372276372,41.09912910428131,50.67235345517311,-0.15409705667490375,-0.6666535713569708,-0.0738799253194153,-0.7032436895507813,-0.44699742526737485,-0.35496975936829345,0.3496151186852898,-0.05824069074770913,-0.10284437396521268,3.0853715843937937,0.311258147537092,2.3943245945226392,0.4117848992957367,0.36252901024055983,0.244021883122532,4.7095118208448685,1.5471513857340096,5.921168849154527,9.519517813784669,0.09688163440822213,5.732790263936001,0.169566803288,0.13142728326599995,0.05954667944266667,22.179501590677546,2.393677410378666,35.060240540197945,2.0846579999999997,1.9122663333333332,4.689682,1.8832770000000003,-0.27933800000000003,-25.916791333333336,41.069998,-50.325213999999995
3.0048765,0.6536504999999999,1.1253320000000002,0.09481,0.17324100000000042,0.1592595,4.329487,0.0,3.1416895000000054,-2.0,-1.9999999999999998,-2.0,-2.0,-2.0,-2.0,-2.0,-3.0,-2.0,0,4.455036565235348,0.969103681427296,1.6684197197553463,0.14056551633651612,0.2568474909361293,0.23611848801809285,6.418907031191163,0.0,4.657875822555763,0.033520999999999995,3.198817,6.5269260000000004,-0.028555,-2.703467,0.5481189999999999,-13.890439,41.671314,-59.168487,-2.9713554999999996,2.5451665,5.401594,-0.123365,-2.876708,0.38885949999999997,-18.219926,41.671314,-62.310176500000004,-5.9762319999999995,1.891516,4.276262,-0.218175,-3.0499490000000002,0.2296,-22.549413,41.671314,-65.45186600000001,4.225900648102425,2.627761687990846,5.517571010060496,0.15558875063769875,2.881919735409888,0.4202086375605575,18.727257170462657,41.671314,62.389328481524494,-1.9641361340446708e-16,-4.969165366297627e-16,0.0,0.0,-3.836860861079315e-15,-3.2208869033387435e-16,0.0,0.0,0.0,3.0048765,0.6536505,1.1253320000000002,0.09481,0.1732410000000002,0.15925949999999997,4.329487,0.0,3.1416895000000054,9.029282780252249,0.42725897615025,1.2663721102240004,0.0089889361,0.03001244408100007,0.025363588340249987,18.744457683169003,0.0,9.870212914410283,-2.9713554999999996,2.5451665,5.401594,-2.876708,0.38885949999999997,-18.219926,41.671314,-62.310176500000004
4.31936,1.96454275,3.270646,0.16957899999999998,0.24288450000000017,0.09128099999999995,9.876642499999996,1.939248499999998,13.65762449999999,-1.2977455009587529,-1.5144642221243472,-1.5080446682459026,-1.6255913310664396,-1.3884513362818505,-1.1277375531490403,-1.8243410476229631,-1.162324757840624,-1.617708056679855,0,4.305943120937988,1.7926640095694433,2.1653961377106263,0.12161267087624979,0.20551831952924648,0.09120968848246462,8.157361173243167,1.738453400750889,11.774076622648925,6.158201,4.175701,7.762397,0.313134,2.023184,-0.185593,-21.10625,44.738037,-38.398429,1.4772975,2.490097,6.172566,0.2195225,1.7543335,-0.314492,-27.780876,42.032106,-50.092496499999996,-2.97375,0.713508,2.667277,0.057467,1.562183,-0.41489499999999996,-34.635898,40.228153000000006,-60.564795999999994,3.701942040476795,2.8026919554876613,6.06454320217364,0.22784842763446933,1.782101408997956,0.3183621861732326,28.39965790881113,42.29000437574965,50.54602203804654,0.042847724073656675,-0.03572456421210281,-0.37217874409064944,-0.2550895318580037,0.24715286302823805,0.23657909633736704,-0.00997718850661575,0.35742583996923327,0.06450832421234017,3.3688101770754684,1.329384246119115,2.0881684510422645,0.10461591964538668,0.17479425728624498,0.0829421133140457,5.679408828115254,1.6551948777484606,8.726370842722432,11.34888200916725,1.7672624738296876,4.360447479928251,0.010944490643250003,0.030553032380250006,0.006879394160999997,32.25568463687349,2.7396700833247416,76.1495480847162,1.5347615,2.46735075,5.6937015,1.7735085000000002,-0.307368,-27.825975000000003,42.25760050000001,-49.7870545
