IQRAccX,IQRAccY,IQRAccZ,IQRGyroX,IQRGyroY,IQRGyroZ,IQRMagX,IQRMagY,IQRMagZ,KurtosisAccX,KurtosisAccY,KurtosisAccZ,KurtosisGyroX,KurtosisGyroY,KurtosisGyroZ,KurtosisMagX,KurtosisMagY,KurtosisMagZ,Label,MADAccX,MADAccY,MADAccZ,MADGyroX,MADGyroY,MADGyroZ,MADMagX,MADMagY,MADMagZ,MaxAccX,MaxAccY,MaxAccZ,MaxGyroX,MaxGyroY,MaxGyroZ,MaxMagX,MaxMagY,MaxMagZ,MedianAccX,MedianAccY,MedianAccZ,MedianGyroX,MedianGyroY,MedianGyroZ,MedianMagX,MedianMagY,MedianMagZ,MinAccX,MinAccY,MinAccZ,MinGyroX,MinGyroY,MinGyroZ,MinMagX,MinMagY,MinMagZ,RMSAccX,RMSAccY,RMSAccZ,RMSGyroX,RMSGyroY,RMSGyroZ,RMSMagX,RMSMagY,RMSMagZ,SkewAccX,SkewAccY,SkewAccZ,SkewGyroX,SkewGyroY,SkewGyroZ,SkewMagX,SkewMagY,SkewMagZ,StdAccX,StdAccY,StdAccZ,StdGyroX,StdGyroY,StdGyroZ,StdMagX,StdMagY,StdMagZ,VarianceAccX,VarianceAccY,VarianceAccZ,VarianceGyroX,VarianceGyroY,VarianceGyroZ,VarianceMagX,VarianceMagY,VarianceMagZ,meanAccX,meanAccY,meanAccZ,meanGyroY,meanGyroZ,meanMagX,meanMagY,meanMagZ
1.124136,1.4042705000000009,1.1169517500000001,0.12790075,0.14700875,0.14734175,2.2549412500000052,2.480434499999987,1.0472309999999991,-1.4502519690770272,-0.6129644013683051,-0.7737259347916403,1.0025084781949394,-0.4508914626462017,6.746704415090521,-0.41111124797937526,-1.1948663645931468,1.1458485785425614,4,0.9194053724607683,1.089797138928072,0.7987119149599935,0.07877213847142113,0.09732912913934649,0.109570234356438,1.738453400750894,1.8721796730534543,0.9056987149506841,8.906885,-2.700797,-4.233164,0.32899999999999996,0.266288,0.359414,-17.317949,67.467842,10.472299000000001,7.501415999999999,-4.9682215,-5.710462,0.042971999999999996,0.044310499999999996,-0.027017,-20.1140755,64.67171450000001,7.766955,6.814245,-6.819033999999999,-6.881286,-0.15996400000000002,-0.100168,-0.9069389999999999,-23.992573999999998,62.597170999999996,5.236149,7.83256172917678,4.9077285866468685,5.715836677295879,0.11660361795115966,0.10561919167840664,0.22186904492312576,20.360894986651036,64.62666035811883,7.8928510139654895,0.07664902859764842,0.06268843980835487,0.2623543998762706,0.7265888497951706,0.4546300966399309,-2.20619605484518,-0.31550182017379996,0.13690839655115955,-0.20478619113575564,0.6675970683077972,0.9536274612743839,0.6378616001265442,0.11264217406066086,0.09636810314460324,0.21766832772388411,1.6433143390225677,1.3958475437256894,1.0316809683903772,0.4456858456131656,0.9094053348966266,0.4068674209159955,0.01268825937711222,0.009286811303688889,0.04737950089411222,2.700482016837179,1.9483903653250407,1.0643656205389065,7.804059033333333,-4.814186800000001,-5.680133933333333,0.04322733333333333,-0.04296943333333334,-20.294471233333336,64.6115844,7.8251346
0.3854852500000021,0.9804757499999996,0.6811847500000003,0.08615524999999999,0.2456135,0.13063025,1.3529634999999978,5.456958999999998,5.67249525,0.2510859560081373,-0.16962042753269557,6.48658635573274,0.422354124359857,2.382748886013566,0.894357543279297,2.7850093298627234,-1.2589181607563247,4.859967379168326,4,0.2839872658469811,0.500525767666382,0.5218248311374327,0.07166528473701453,0.19130312945821484,0.10206826713079965,1.2035446050351484,3.4769068015017828,2.7170939209487286,9.404904,-0.833225,-0.45492200000000005,0.363622,0.22341100000000003,0.41347700000000004,-26.8789,56.82451999999999,-0.174538,8.885335999999999,-3.3424760000000004,-4.21401,0.088646,-0.0244005,0.0131975,-28.682853,53.938196000000005,-3.0544205,8.193375999999999,-4.2187980000000005,-5.84215,-0.149045,-1.3899569999999999,-0.29173899999999997,-33.733921,47.443965000000006,-25.657132999999998,8.908282138403779,3.1569017015844176,4.269044642416205,0.1511330369720965,0.42042761546830343,0.14795660981978342,29.046801153679553,52.959940009967426,7.641183995449601,-0.38225842253189024,1.012959241683072,2.0558293026908423,0.3040077128833202,-1.7519407615092002,0.414779296402309,-1.3581801955616155,-0.41163021686839424,-2.1828421387775068,0.27440268456759126,0.9305753195583283,0.9874206153167445,0.11855732520520183,0.39245011750247005,0.1466524752496006,1.4448386270512499,3.046835866785922,5.7798149422793825,0.07529683329790098,0.8659704253710848,0.9749994715524983,0.014055839359811985,0.15401709472770253,0.021506948496834714,2.087558658219341,9.283208799133119,33.40626076699602,8.904054909090911,-3.0166302272727274,-4.153280954545455,-0.15080545454545458,0.01960127272727274,-29.010844500000005,52.87222368181817,-4.998142863636364
0.3699229999999982,0.96850375,0.61174975,0.08821925,0.1486065,0.08235975000000001,0.7666802500000003,3.4726084999999998,3.4907662499999983,1.4382579161275801,-0.4710526353879332,3.766735890260893,16.309379875589382,2.726243106972234,1.821824155190357,1.7636863151549038,-1.1897933865768069,1.680129911091056,4,0.2981861472936108,0.7099655700635762,0.2733369928103487,0.07699523971254217,0.07896932456648237,0.05745009466598283,0.66863506801829,2.2733659029721713,2.846479875256602,9.548563,-1.690392,-1.3551870000000001,0.181725,0.70039,0.13011199999999998,-29.765224,54.479381000000004,-7.330609,8.9858975,-3.471769,-3.9099304999999998,0.0541575,-0.009752499999999999,0.002012,-32.380956499999996,52.044045999999994,-10.6468375,7.973097999999999,-4.003309,-4.621045,-1.343224,-0.8104439999999999,-0.24380100000000002,-34.455501,48.706733,-22.340904000000002,9.007148121002169,3.247085294944927,3.7704515433262875,0.28752152939620595,0.28055887649156336,0.08044566158594259,32.25035873927635,52.09788305966276,12.125336918360919,-1.0758917536244206,0.7403961503098274,1.7277523628703826,-4.110201054194034,-0.28566509377640475,-0.981403475337298,0.22743033913939129,-0.10641130262947719,-1.5326221324092117,0.35716910505929006,0.6630663829488636,0.6779177919854367,0.287326379277689,0.2716325079496928,0.08031353970256544,0.8875485820090362,1.8053146013226478,3.8936711291016297,0.12756976960885416,0.43965702819688895,0.4595725326904097,0.08255644822882638,0.07378421937503991,0.006450264659555556,0.7877424854262508,3.2591608097487508,15.16067486159956,9.00006375,-3.178664166666666,-3.7090069166666666,-0.07020729166666667,0.004608666666666664,-32.2381435,52.066594458333334,-11.483166833333334
0.8487875000000003,1.1792047499999998,1.6520839999999999,0.23482800000000004,0.353407,0.07310449999999999,2.7510302499999995,0.8568772500000037,9.817778749999997,-0.9263659200372296,-1.710795183548871,-1.185666081700963,-1.3425759575178027,-1.6450987878013896,-1.0281174362263372,-1.9088209725794132,-0.7878826194504231,-1.6854280527356706,4,0.49697567665417325,0.9691036814272957,1.6258223341143523,0.18083966430111154,0.3077830314539982,0.08962997581864694,2.1396366654651975,0.401180299509874,7.50435495651125,9.222935000000001,-0.593792,0.660833,0.085051,-0.60085,0.352223,-29.404434000000002,51.412662,-6.806994,8.779985499999999,-1.5491275,-1.479692,-0.1968495,-0.8902075,0.23131400000000002,-31.027991999999998,49.428312000000005,-15.446640499999999,7.1925479999999995,-2.365592,-3.217971,-0.358106,-1.163585,0.120525,-32.831947,49.067523,-21.468212,8.530460773971562,1.6755631450131176,1.973887186025711,0.23803840564602174,0.913798778850957,0.2478933638411888,31.10956132694152,49.842915159359684,15.95355568914937,-0.8542674177419376,0.07684593266928069,0.19037832690496234,0.38960346263986356,0.031983044202458136,0.09077559398051921,-0.026590507266203527,1.0098022672370168,0.16984005278234282,0.7893312736964442,0.7169902105546403,1.4121719750534103,0.16993300600604344,0.22283539457018492,0.0822684842482223,1.5059236779826142,0.9319215037881057,5.975706925541712,0.6230438596352509,0.5140749620311874,1.9942296871262495,0.02887722653025,0.049655613073250005,0.006768103500500001,2.2678061239086844,0.8684776892226843,35.709073259967184,8.4938635,-1.51440975,-1.3791305,-0.8862125,0.23384400000000002,-31.07309125,49.834202250000004,-14.792121750000002
0.0,0.0,0.0,0.0,0.0,0.0,0.0,0.0,0.0,-3.0,-3.0,-3.0,-3.0,-3.0,-3.0,-3.0,-3.0,-3.0,4,0.0,0.0,0.0,0.0,0.0,0.0,0.0,0.0,0.0,8.557313,-2.925864,-4.6976629999999995,-0.133864,0.5278149999999999,-0.092532,-30.126015999999996,52.49503299999999,-2.268998,8.557313,-2.925864,-4.6976629999999995,-0.133864,0.5278149999999999,-0.092532,-30.126015999999996,52.49503299999999,-2.268998,8.557313,-2.925864,-4.6976629999999995,-0.133864,0.5278149999999999,-0.092532,-30.126015999999996,52.49503299999999,-2.268998,8.557313,2.925864,4.6976629999999995,0.133864,0.5278149999999999,0.092532,30.126015999999996,52.49503299999999,2.268998,0.0,0.0,0.0,0.0,0.0,0.0,0.0,0.0,0.0,0.0,0.0,0.0,0.0,0.0,0.0,0.0,0.0,0.0,0.0,0.0,0.0,0.0,0.0,0.0,0.0,0.0,0.0,8.557313,-2.925864,-4.6976629999999995,0.5278149999999999,-0.092532,-30.126015999999996,52.49503299999999,-2.268998
0.3364024999999984,0.48006225000000047,0.8523794999999992,0.15406625000000002,0.16957975000000003,0.10785975,2.1647430000000014,1.8941507500000014,2.8362477500000005,3.652010734624297,2.0233805830186906,2.1622617437312286,4.300487605262562,1.0255002060546463,1.706958601812592,-0.2932332475632031,0.9620465713402351,3.462585193074659,4,0.26978838440035663,0.35853324669455455,0.6815678071703201,0.09219710155998936,0.13227406342952353,0.04777611519023377,1.604727128448342,1.0698168501303789,1.682010734292387,9.112796000000001,-1.039137,-0.11013900000000001,0.215015,0.489464,0.418004,-27.059295000000002,58.808868000000004,1.570845,8.8733635,-3.8428895,-4.029647000000001,-0.003367499999999999,0.0353885,0.0022785,-29.404434000000002,57.816695499999994,-0.698153,7.36494,-4.621045,-5.952289,-0.7112470000000001,-1.163052,-0.360183,-33.733921,50.510684000000005,-20.770059,8.739582505843233,3.686543109414846,4.049331738161336,0.2143013437843815,0.416232447201881,0.15218984074654368,29.727025688117898,56.72985333675717,6.340090822807752,-1.854726392001309,1.795942413641009,1.284214732263764,-2.1279666143807425,-1.4385302617718443,0.1454583496487205,-0.6583019285833475,-1.5148188774365363,-2.13984908668461,0.3938789132284449,0.941280603791496,1.2776365851497318,0.21267810127961234,0.40279239794043303,0.14664501019108256,1.7575043079707118,2.512435890823285,5.539739767670896,0.15514059828602086,0.8860091750740834,1.6323552437130677,0.04523197476390104,0.16224171583860417,0.02150475901394271,3.0888213925356105,6.312334105496994,30.68871669351439,8.73070225,-3.5643499999999997,-3.842490375,-0.10491774999999999,0.040706124999999996,-29.675027125,56.674191,-3.0835101666666667
