IQRAccX,IQRAccY,IQRAccZ,IQRGyroX,IQRGyroY,IQRGyroZ,IQRMagX,IQRMagY,IQRMagZ,KurtosisAccX,KurtosisAccY,KurtosisAccZ,KurtosisGyroX,KurtosisGyroY,KurtosisGyroZ,KurtosisMagX,KurtosisMagY,KurtosisMagZ,Label,MADAccX,MADAccY,MADAccZ,MADGyroX,MADGyroY,MADGyroZ,MADMagX,MADMagY,MADMagZ,MaxAccX,MaxAccY,MaxAccZ,MaxGyroX,MaxGyroY,MaxGyroZ,MaxMagX,MaxMagY,MaxMagZ,MedianAccX,MedianAccY,MedianAccZ,MedianGyroX,MedianGyroY,MedianGyroZ,MedianMagX,MedianMagY,MedianMagZ,MinAccX,MinAccY,MinAccZ,MinGyroX,MinGyroY,MinGyroZ,MinMagX,MinMagY,MinMagZ,RMSAccX,RMSAccY,RMSAccZ,RMSGyroX,RMSGyroY,RMSGyroZ,RMSMagX,RMSMagY,RMSMagZ,SkewAccX,SkewAccY,SkewAccZ,SkewGyroX,SkewGyroY,SkewGyroZ,SkewMagX,SkewMagY,SkewMagZ,StdAccX,StdAccY,StdAccZ,StdGyroX,StdGyroY,StdGyroZ,StdMagX,StdMagY,StdMagZ,VarianceAccX,VarianceAccY,VarianceAccZ,VarianceGyroX,VarianceGyroY,VarianceGyroZ,VarianceMagX,VarianceMagY,VarianceMagZ,meanAccX,meanAccY,meanAccZ,meanGyroY,meanGyroZ,meanMagX,meanMagY,meanMagZ
0.8356197499999993,0.32562800000000003,0.33640274999999953,0.19854175000000002,0.10959075000000001,0.023369750000000022,1.2627669999999966,1.9843479999999971,2.661710250000006,-0.7132102735816086,-0.3617423531870889,-1.4664739798943356,-1.2388164992525248,-1.435148089880271,-0.8218520604947801,-0.7124863327942168,-1.4068822116169266,0.33701919814526704,0,1.377334495787267,0.8022627472733156,2.4635822850042364,0.2562559326509453,0.31824649661110155,0.09436763120788157,5.081633929950133,3.4769068015017988,1.811394464696923,0.33520500000000003,8.600411,6.51256,0.9029889999999999,0.914717,0.10328699999999999,-17.498344,53.757801,-59.343025,-2.37038,8.030562,3.3855739999999996,0.548517,0.45238500000000004,-0.041059,-27.780876,46.902778000000005,-62.48471800000001,-3.423883,4.525272,1.077446,0.08938099999999999,0.183401,-0.13906400000000002,-33.192737,44.016452,-70.338943,2.464490928220711,7.52489834280206,4.1361968775903195,0.5669600671239393,0.5815606816345761,0.08399663844788943,26.78004561494267,48.0385731537148,63.44841441708942,0.7522881457381962,-1.018956760046695,0.15023781736035713,-0.13224483320032596,0.27217082149499267,0.2947642726949389,0.4790957847377506,0.44859895362251184,-1.1466897862640613,1.2106767160898824,1.3451947348909121,1.832407296384289,0.2593529200527426,0.26237006147081327,0.07365345976579156,4.847232159071692,3.3795065008660066,3.086961428641848,1.4657381108821819,1.8095488747782313,3.35771649984238,0.0672639371398843,0.06883804915619834,0.005424832135471075,23.495659603938815,11.4210641893956,9.529330861922517,-2.14662,7.403684636363636,3.708154272727273,0.5190132727272727,-0.04038072727272727,-26.337714090909092,47.919551818181816,-63.37327481818182
0.8356197499999993,0.32562800000000003,0.33640274999999953,0.19854175000000002,0.10959075000000001,0.023369750000000022,1.2627669999999966,1.9843479999999971,2.661710250000006,-1.1531941475428722,-1.4525198568423046,-1.1625940025007335,-0.420257269646112,-0.6911596712331525,0.1127475013989625,-0.37470587192490834,-1.525148688841748,0.23933373650127,0,2.250591650293723,4.557981791578394,1.3134373053741133,0.15754427694284232,0.1899213441905676,0.031192468075139323,7.756178649829969,8.55854666186079,1.2938506474654263,2.250664,8.648297999999999,7.2787440000000005,0.108822,-0.130324,-0.160104,-13.349253,62.957962,-62.659255,-1.9825,5.31061,6.143835,-0.389196,-0.344445,-0.25890799999999997,-27.780876,55.922546,-67.371788,-3.68247,-0.646467,1.541944,-0.563103,-0.634734,-0.297525,-36.259456,44.016452,-72.258865,2.4822553135602,5.738187877691293,5.5425039439944825,0.3713931908312889,0.37953192240655514,0.25386356511368613,28.0952405536242,54.79416403348181,67.45474696566481,0.5288387110647037,-0.26123523929663145,-0.6087914084871985,0.8342694630633487,-0.15747302498119464,0.9314639590657366,0.45629616763756736,-0.16966490573452467,0.20328383507579606,2.055952087707442,3.2942126277537906,2.024363720434935,0.19536628840791345,0.14327057774359064,0.03908434857871479,6.305763977313329,6.706099133594231,2.399168038821956,4.226938986948591,10.851836836852534,4.098048472613171,0.03816798664628402,0.020526458446982254,0.001527586303822485,39.76265933758241,44.97176558959329,5.75600727850479,-1.3909178461538458,4.698400076923077,5.159583461538462,-0.3514513076923077,-0.2508368461538461,-27.378456538461535,54.38224569230769,-67.41206776923077
0.8356197499999993,0.32562800000000003,0.33640274999999953,0.19854175000000002,0.10959075000000001,0.023369750000000022,1.2627669999999966,1.9843479999999971,2.661710250000006,-1.193798457380057,-0.7404985947814513,-1.4253646396019393,-1.4995170432528933,-1.1531422922505947,0.2238125760691303,-1.228875455692054,-1.5586556005533083,-1.5137031746789482,0,1.4128324407049466,0.9158567640507763,2.3002899592602475,0.28981759907125665,0.18005017861975733,0.022110046884574058,2.9420002296893752,5.349090922361887,1.0350861518607888,-0.8763219999999999,8.547736,6.201298,1.062781,0.710715,-0.069022,-22.729808,51.593055,-60.390254000000006,-2.715163,7.7193,4.3816120000000005,0.6949930000000001,0.357308,-0.129211,-27.780876,45.820407,-61.437484,-3.692047,5.693702,1.580254,0.455305,0.235866,-0.188334,-31.027991999999998,41.490921,-62.135639000000005,2.6008210711319335,7.583018426863898,4.282619780262444,0.7660847998761532,0.4601092922258487,0.13730898172162145,27.35371327506908,46.74163325507039,61.39135438446933,0.2844525712787743,-0.8141709990566558,-0.010237022834547343,0.2269440403847376,0.5234326346799996,0.3856943441535626,0.2407335440380383,0.027270066303333642,0.2528848133257696,0.9290848233822707,0.9685215329336374,1.6581720742744501,0.2244467426822984,0.16367274152642372,0.03285858223990083,2.7619231107894917,3.717962007686777,0.6773622390236288,0.8631986090392653,0.9380339597561228,2.749534627903633,0.05037634030069387,0.026788766318775508,0.0010796864268163265,7.628219269913103,13.823241490602289,0.4588196028551037,-2.4292121428571427,7.520913142857144,3.9485817142857145,0.43001371428571433,-0.13331942857142856,-27.213919428571426,46.593529999999994,-61.38761742857143
0.8356197499999993,0.32562800000000003,0.33640274999999953,0.19854175000000002,0.10959075000000001,0.023369750000000022,1.2627669999999966,1.9843479999999971,2.661710250000006,-1.198453711639468,-1.390237516568753,-1.1889835030256637,0.0126020612419393,-1.5065757893238987,1.2205932259176278,-0.9746386681165635,-1.481809584405276,-0.4809933009725955,0,2.9605579616584077,3.2800424311219603,1.7749150371106042,0.13148457774816932,0.20887344834972468,0.035140637783019756,5.616543466966991,6.686358093194058,1.811400395105803,2.983327,8.662664,7.264378,0.07473300000000001,-0.119405,0.011406999999999999,-19.482692,57.18531,-57.248565,-0.809281,5.755954,5.6745470000000005,-0.261895,-0.293578,-0.10018200000000001,-29.945621000000003,51.232265000000005,-60.564795999999994,-3.481347,1.6520830000000002,1.518001,-0.529014,-0.46934899999999996,-0.259707,-37.883014,41.13013,-62.83379300000001,2.222768961154948,6.199563535068311,5.289616842432657,0.2959154148795018,0.3257422319417374,0.12099449350407519,29.800568498956707,50.00818315181705,60.51797879416274,0.24424174050334227,-0.21750859508134404,-0.49745633463874783,0.3459868520237669,-0.0037763142697205708,-0.6394398905988801,0.2045280534746139,-0.2315355403500642,0.4698385483961981,2.097904811627806,2.4347896524757497,1.8891135415919478,0.14896180300975537,0.12469005158984935,0.06198667103479854,5.399641304834116,5.736342577833403,1.5679162404827713,4.4012045986511,5.928200651802982,3.5687499730260717,0.02218961875591716,0.015547608965479291,0.0038423473859763324,29.15612622087067,32.90562617026437,2.4583613371696273,-0.7345047692307692,5.7014373076923075,4.940778923076923,-0.3009325384615384,-0.10391015384615383,-29.307298692307693,49.6780913076923,-60.497664384615376
0.8356197499999993,0.32562800000000003,0.33640274999999953,0.19854175000000002,0.10959075000000001,0.023369750000000022,1.2627669999999966,1.9843479999999971,2.661710250000006,-1.333437842809924,-1.3231260596083292,-0.9878838970668617,-0.920030223412799,0.10086759213422258,-0.7877435676758804,-1.1099389938876447,-1.3202817166496774,-0.23147924066843473,0,3.2232454227332292,2.7972663772155277,1.8920584035991677,0.16761262860871384,0.1111492057191465,0.08410283474805805,6.017724507777962,6.151453003983844,1.811394464696944,3.692047,8.590834,7.082408999999999,0.857981,0.721368,-0.014693000000000001,-21.827831,56.463729,-53.583263,-0.8116755,6.529320500000001,5.3584965,0.5917939999999999,0.4214915,-0.142127,-31.749574000000003,49.2479185,-58.993949,-3.275435,1.7909540000000002,1.508424,0.337325,0.131735,-0.29672600000000005,-37.341827,43.114478999999996,-61.961101,2.3916909344126625,6.353384786310382,5.0309611091734885,0.619274331001559,0.4312781262244983,0.16675953932941032,31.31753601277406,49.71832382250419,58.51118249628805,0.3160471872443651,-0.4096948116761771,-0.48723132798011215,0.024704162305764013,-0.12005266362307401,-0.07346577190991686,0.38808049935842553,0.030523805190767604,0.6189078365297476,2.380186596137893,2.3986473170726796,1.735091968589744,0.15100090043994263,0.14938411753282618,0.08253163780255697,4.779485611818197,4.30726443751229,2.185963291850967,5.665288232434489,5.753508951699963,3.0105441394646326,0.022801271933673463,0.02231561457106123,0.006811471238372451,22.84348271357717,18.55252693465807,4.7784355133199155,-0.2343017142857142,5.8831955,4.722290285714286,0.40458028571428567,-0.14490435714285715,-30.950679785714282,49.53139607142857,-58.47033471428572
0.8356197499999993,0.32562800000000003,0.33640274999999953,0.19854175000000002,0.10959075000000001,0.023369750000000022,1.2627669999999966,1.9843479999999971,2.661710250000006,-1.1889442740265659,-1.4798763810998308,-1.1759839373573657,-1.1296983519996087,0.608372316143774,-0.954288475371571,-0.48625269148275274,-1.474552628519389,-1.4153742993764515,0,2.314488840706877,4.3094932119502,1.9950058538455413,0.1480674835621545,0.0702827581682581,0.1587288761154282,4.279270365725961,8.55854666186079,2.328935316724011,2.1979889999999997,9.141529,7.135085000000001,-0.176939,0.032664,0.05934400000000001,-20.023878,61.334403,-60.215717000000005,-0.6847770000000001,5.7128559999999995,5.4255379999999995,-0.385468,-0.36042399999999997,-0.13613499999999998,-31.027991999999998,54.479381000000004,-62.135639000000005,-3.002482,1.015193,1.920248,-0.632613,-0.471746,-0.396063,-37.522224,41.310522999999996,-64.579177,1.9054637562163181,6.211707230312467,5.387423933639822,0.4261766132026828,0.3470092628973259,0.21133174118217762,30.632308255063766,53.40013974467935,62.51921190186619,0.322238113628702,-0.1479271192728041,-0.5118296863499351,-0.06227706579707696,1.2410859863336254,-0.2736184783245879,0.4779648491583085,-0.3103806825973759,-0.030147377229193507,1.7495630370983521,2.845282030749814,1.8076896429593805,0.1513495893975051,0.14323122437703817,0.14056712695898757,4.982286506151,7.134286053513196,1.5260516904434278,3.0609708207808097,8.095629834507784,3.2677418452626124,0.022906698210793386,0.02051518363654545,0.019759117181504127,24.823178829374342,50.898037493352895,2.3288337619052437,-0.7548650909090909,5.521745818181818,5.075095545454546,-0.31607,-0.15780363636363637,-30.224412818181815,52.92142181818181,-62.500584181818176
0.8356197499999993,0.32562800000000003,0.33640274999999953,0.19854175000000002,0.10959075000000001,0.023369750000000022,1.2627669999999966,1.9843479999999971,2.661710250000006,-0.5738773577752676,-0.8970288352942459,-1.2079767291286139,-1.3022635856950182,-1.3135024598503706,-0.6881452945294848,-1.218189435883786,-1.2401328327145082,-1.5361599930957024,0,0.6886665065925244,0.706416961653584,1.643571306573192,0.22269352492952454,0.1224028978587133,0.04599921643135478,2.2733636790688596,4.145544834724518,1.6820099929912768,-1.005616,8.586046000000001,5.569197,0.774623,0.42069300000000004,-0.038395,-23.090598999999997,50.510684000000005,-58.993949,-2.5068564999999996,8.040139,3.6345834999999997,0.5679585,0.3240185,-0.145989,-27.420086500000004,44.467443,-60.7393335,-3.179662,6.273128,1.632929,0.370615,0.114691,-0.181676,-31.027991999999998,40.76934,-63.182868000000006,2.441872021062708,7.797166182607387,3.678815556131195,0.5952370095131224,0.30107898441169056,0.14221461551472128,27.09715180640079,45.52810812112465,60.97697758687012,0.6907341272801283,-0.7358825638115807,0.03269630760361435,-0.12098734963590493,-0.3539739166135474,0.8247326685696907,0.13921283188242026,0.23805011418176217,-0.2260458176722856,0.6759968828852758,0.7961616453034213,1.3005915015020508,0.14256462840448667,0.10572232325996425,0.04909469236014724,2.631237220842884,3.2140621136067224,1.5408627095314185,0.4569717856706093,0.6338733654522507,1.6915382537793593,0.020324673272109368,0.011177209635484379,0.0024102888179375,6.9234093123489835,10.330195270122111,2.374257889624505,-2.346437125,7.756412000000001,3.4412418750000002,0.28190662499999997,-0.13347175,-26.969097625,45.414517875,-60.957506
0.8356197499999993,0.32562800000000003,0.33640274999999953,0.19854175000000002,0.10959075000000001,0.023369750000000022,1.2627669999999966,1.9843479999999971,2.661710250000006,-1.211700772733903,-1.1274920235424868,-1.3930622971975857,-1.316008802330143,-0.09827136411615456,-0.4330878693695541,-0.461476627219616,-1.3370769174379735,-0.8476135054522183,0,0.49697715925638863,0.5821704479361584,1.8246118634749109,0.1970289392260834,0.12437698271265353,0.021322785106547556,1.6047286110505594,2.407090692672522,1.0350846692585425,-2.2315099999999997,9.002657000000001,4.443865,-0.26722199999999996,0.387935,-0.02721,-17.317949,46.541988,-59.692104,-2.863611,8.609989,2.667277,-0.453113,-0.43685799999999997,-0.118558,-25.435737,42.753688000000004,-60.91387099999999,-3.323321,7.2787440000000005,1.259414,-0.586007,-0.520749,-0.162501,-26.518109999999997,41.13013,-62.135639000000005,2.8781493090170285,8.34941009331264,3.1109430299912595,0.42807133694327165,0.43326042680863436,0.11731998207466622,23.9526652596086,43.52030606220987,60.77979409000743,0.3297704656441025,-0.6122091671445501,0.010481929958184782,-0.12478904516507004,1.2703748299851712,0.8082677431098044,1.0545495323411345,0.4014800110276324,-0.3920373079140652,0.39322453832201276,0.6308639488005635,1.1527921126340168,0.11583893780763013,0.3399140479860166,0.044908796806861793,3.4428576463729894,1.9794221572461002,0.8216285211148895,0.15462553753856006,0.39798932189624,1.3289296549512,0.0134186595124,0.11554156001824001,0.00201680003064,11.853268773188962,3.9181120765968047,0.6750734267094405,-2.8511608,8.3255426,2.88947,-0.2686504,-0.1083844,-23.7039428,43.475268,-60.77424040000001
0.8356197499999993,0.32562800000000003,0.33640274999999953,0.19854175000000002,0.10959075000000001,0.023369750000000022,1.2627669999999966,1.9843479999999971,2.661710250000006,-1.4024338487134762,-0.9913424773795021,-1.0477242755954748,-1.4640763973262167,-1.1845585387401214,-0.676673106384531,-0.018448610845155144,-0.9159763487219603,0.49054191811004655,0,1.3631348730395298,0.8235603281421455,1.6542200970076086,0.20314837988296533,0.254281847797005,0.09397400031886832,3.8780893249149844,2.540819188878399,1.2938558365731991,-0.392669,8.696185,6.062427,0.862242,0.808721,-0.014427,-19.121902,50.149894,-56.724952,-2.1979889999999997,8.037745000000001,3.3975455,0.518822,0.5598449999999999,-0.109769,-27.6004815,45.098827,-58.1212575,-3.261069,6.488617,1.498847,0.344516,0.11682100000000001,-0.28580700000000003,-31.388782,43.294872,-64.579177,2.299477670567465,7.926241120383884,3.761512482284935,0.6059570060349786,0.5246989904614359,0.1488307541450187,27.457296807233018,45.7503082441549,59.0029206202597,0.3015541579531175,-0.5582652668774314,0.27561389201633774,0.30010121750189256,-0.2847560137801487,-0.5481072261478112,0.9074328386717455,0.7127144939615966,-1.3607735271127261,1.050779403859397,0.7519313544498991,1.463376211524777,0.17987379031903003,0.2255295378008998,0.08430295538256281,3.789106426496944,2.4415920250320267,2.490996200671029,1.1041373555751095,0.5654007618048598,2.141469936456609,0.032354580443734376,0.050863572420687495,0.007106988286234376,14.357327511320438,5.961371616699992,6.205062071757502,-2.045350875,7.890494125,3.4651848750000003,0.47375675,-0.12265237500000001,-27.19459175,45.685110625,-58.9503145
