IQRAccX,IQRAccY,IQRAccZ,IQRGyroX,IQRGyroY,IQRGyroZ,IQRMagX,IQRMagY,IQRMagZ,KurtosisAccX,KurtosisAccY,KurtosisAccZ,KurtosisGyroX,KurtosisGyroY,KurtosisGyroZ,KurtosisMagX,KurtosisMagY,KurtosisMagZ,Label,MADAccX,MADAccY,MADAccZ,MADGyroX,MADGyroY,MADGyroZ,MADMagX,MADMagY,MADMagZ,MaxAccX,MaxAccY,MaxAccZ,MaxGyroX,MaxGyroY,MaxGyroZ,MaxMagX,MaxMagY,MaxMagZ,MedianAccX,MedianAccY,MedianAccZ,MedianGyroX,MedianGyroY,MedianGyroZ,MedianMagX,MedianMagY,MedianMagZ,MinAccX,MinAccY,MinAccZ,MinGyroX,MinGyroY,MinGyroZ,MinMagX,MinMagY,MinMagZ,RMSAccX,RMSAccY,RMSAccZ,RMSGyroX,RMSGyroY,RMSGyroZ,RMSMagX,RMSMagY,RMSMagZ,SkewAccX,SkewAccY,SkewAccZ,SkewGyroX,SkewGyroY,SkewGyroZ,SkewMagX,SkewMagY,SkewMagZ,StdAccX,StdAccY,StdAccZ,StdGyroX,StdGyroY,StdGyroZ,StdMagX,StdMagY,StdMagZ,VarianceAccX,VarianceAccY,VarianceAccZ,VarianceGyroX,VarianceGyroY,VarianceGyroZ,VarianceMagX,VarianceMagY,VarianceMagZ,meanAccX,meanAccY,meanAccZ,meanGyroY,meanGyroZ,meanMagX,meanMagY,meanMagZ
0.2334467499999997,0.12330774999999994,0.18077124999999938,0.03382225,0.03362325,0.02157225,1.0372747500000017,1.443164000000003,1.3526707499999873,10.045057624463645,10.148231760095555,8.333284746635789,4.9380460791648435,19.81682334029468,5.604836695443778,9.020111451758297,5.776149996977837,0.6997135190371151,1,0.14909270299625105,0.09939513533083393,0.13844317126072606,0.02546814090948927,0.024677913927025744,0.015596234037569701,0.8023628229230649,1.203543122432939,1.0350854105596707,2.877977,6.6035449999999996,7.949155,0.9029889999999999,0.914717,-0.023748,-29.404434000000002,61.695193999999994,-58.644874,2.6792485,0.5842149999999999,7.147056500000001,0.21361950000000002,0.0398545,-0.11988950000000001,-36.439849,59.0794615,-60.04117900000001,-0.9050540000000001,0.201123,5.162162,0.16208599999999998,-0.026725,-0.191529,-37.883014,51.232265000000005,-63.706485,2.5314995028051475,1.53459771080413,7.056497544975356,0.3199331576919488,0.1599524957591666,0.12087861073585779,36.09802798118702,58.820450093779414,60.24877579463776,-3.2163228822457124,3.2921771381298415,-2.433051855125844,2.469952172953416,4.143914733510942,0.9065143197398643,2.541320862591359,-2.1676719807573797,-0.810841355042525,0.7387087318008795,1.2131533603398925,0.4025081827379092,0.16656291309565263,0.14103695236077393,0.022265690645382506,1.3482770130324075,1.8859691734538024,1.040410945461228,0.5456905904388637,1.4717410757039728,0.16201283717097412,0.02774320401890993,0.01989142193121522,0.000495760979915874,1.8178509038715907,3.5568797232180187,1.0824549354355264,2.4213217758620686,0.9398133103448276,7.045008500000001,0.07545448275862068,-0.11881025862068964,-36.07283982758621,58.79020725862069,-60.2397919137931
0.2777415000000003,0.35795175,0.21668649999999978,0.047205499999999984,0.07516899999999999,0.023502499999999982,1.0823740000000015,1.6686564999999973,1.3963090000000093,4.48585971010224,4.817557044079079,2.139883948129498,2.810649682795548,2.571686813381837,2.9482214721574707,5.071310591669688,6.068664998338738,4.7128892532223565,1,0.19169157123946365,0.28753587425697646,0.16684167545509024,0.03198269505760286,0.056660608984628595,0.01934721765038885,0.8023665294286071,1.2035460876373685,1.035085410559676,2.7103740000000003,5.693702,7.484656,1.095272,0.483012,-0.022682,-27.780876,63.679542000000005,-59.692104,2.4565759999999996,-0.2968965,7.1398735,0.2146845,0.033463,-0.1233515,-36.439849,61.7853925,-61.873832,-1.9825,-0.7470289999999999,5.933134,-0.563103,-0.487725,-0.297525,-38.063407,51.593055,-70.164405,2.2975988047252645,1.502304912160531,7.028605572163969,0.3562257869314468,0.17402959517513517,0.14420706858678203,35.85327872621537,61.36111543196659,62.25682951760736,-2.345799507287692,2.4070562049942543,-1.6942348775707559,0.13392619298346015,-0.6396985388049433,-1.6603236971802036,2.2806575589062907,-2.286881925263746,-2.1314419816056174,1.0723294957000864,1.4834867745486406,0.36646563187362396,0.2923117574730242,0.17262042024731886,0.051009279901668224,2.03319683257676,2.204077775813336,2.0548667019561586,1.1498905473484018,2.200733010260729,0.13429705934453448,0.08544616355696812,0.02979780948636097,0.002601946636086734,4.133889360000171,4.857958841834263,4.22247716280818,2.03201125,0.23703805357142857,7.019045464285715,0.022101821428571426,-0.13488414285714284,-35.795582214285716,61.321517660714285,-62.222908517857135
0.3064739999999997,0.28253099999999987,0.22506699999999924,0.041012999999999994,0.048736999999999996,0.027964000000000003,1.2627680000000012,1.4431610000000035,1.7453839999999943,4.90826048283771,5.846038382098394,3.935000097945987,3.509613483820676,3.4496501331668847,10.709152371223787,5.362899573721968,1.262768469364354,2.5396338690619613,1,0.16329232574398947,0.1845913892150401,0.1703910251661943,0.03079809588501689,0.03672109174794674,0.020926930314206553,0.8023650468263923,1.0698175914314914,1.2938491648632222,4.123025,5.200471,7.264378,0.807913,0.53308,-0.085268,-31.208387,58.808868000000004,-52.186954,3.739934,1.316878,6.680163,0.20815999999999998,0.035061,-0.121754,-37.341827,56.463729,-55.32864300000001,-0.119716,0.962518,5.396806,-0.29412,-0.46775100000000003,-0.29672600000000005,-38.965385,52.49503299999999,-62.310176,3.505177702959167,1.8557482076685405,6.629219825770678,0.2532908137165738,0.15994311713109835,0.13332693804880313,37.0061167262525,56.40216871782687,55.752741257556224,-2.409263936298625,2.501953493477549,-1.8357733600946384,-0.2340768226373708,-0.40708937045284815,-3.0216366764295195,2.1765343235338763,-0.6785798929569679,-1.4974498149666227,0.9477102934542248,0.8692513482856823,0.35020723410496335,0.17775649133409846,0.1591187997015222,0.03590715443392664,1.5492314777932323,1.1667740303330492,2.095640829252209,0.8981548003190929,0.7555979064964765,0.1226451068194486,0.03159737021140942,0.025318792418453147,0.0012893237395418579,2.4001181717854028,1.361361637859627,4.391710485228887,3.3746282653061224,1.6395741836734694,6.6199630204081625,0.016217530612244898,-0.12840073469387756,-36.97367383673469,56.39009908163265,-55.71334173469387
0.5327372500000003,0.4297814999999998,0.3806969999999996,0.06931025000000005,0.12503675,0.021771750000000006,1.2176687500000014,1.2176697499999989,2.050824750000011,2.813360266683949,2.2059814605508574,2.8749940876965443,1.6244580270159803,2.084897271557148,7.795645057631324,2.36331027619687,3.41525569414019,1.0544662348774727,1,0.25203792933929675,0.22008859283161028,0.1845906479139301,0.04777685649134299,0.08568180611076648,0.017571060192619153,0.8023665294286071,0.9360935430322745,1.2938550952721024,3.098255,4.60189,7.494233,0.6981890000000001,0.49473,-0.084469,-31.208387,61.334403,-56.724952,2.870794,0.8044924999999999,7.0369175,0.2102905,0.039455500000000004,-0.1222865,-36.981037,59.891242000000005,-58.993949,-0.502808,0.339994,5.631449,-0.476017,-0.471746,-0.396063,-38.784991999999995,53.757801,-64.579177,2.630663659196156,1.6872626818333172,6.92824104218945,0.3182179743993251,0.18949935560632994,0.155321518406559,36.48751305175785,59.4339397141115,59.55399173779723,-1.9607116993924767,1.860508109529915,-1.5121022178311216,-0.6559616873692096,-0.5528493367767368,-2.8566539364619326,1.5118954176223418,-1.933889575895916,-1.2357498732125964,0.9098293403165764,1.1134168623377363,0.34828107877992337,0.2443219537213736,0.18507885981547686,0.06372927773081435,1.4911204986749174,1.6801577235063274,1.8297621912442736,0.8277894285008964,1.2396971093380096,0.1212997098361072,0.059693217070229024,0.03425418435059693,0.00406142084009127,2.2234403415685344,2.822929975857965,3.3480296765070454,2.468319642857143,1.2677374523809521,6.9194815,0.04069178571428572,-0.14164516666666668,-36.45703180952381,59.41018650000001,-59.5258759047619
0.3735140000000001,0.6799869999999999,0.43097900000000067,0.034356000000000025,0.073238,0.01970699999999999,1.6235539999999986,1.8039509999999979,1.5708470000000148,4.043242435124336,3.1474469338249067,5.684977149946366,1.790055422848014,4.012991181467829,9.131739065193168,3.3202713524016563,2.66923303393122,1.1683415095099576,1,0.21298915210829625,0.3123857700413487,0.2981854059925034,0.027244298367258987,0.06120181957991124,0.015398306641399212,1.3372731012410306,1.3372745838432454,1.0350861518607888,2.403901,6.488617,7.992252000000001,0.9362790000000001,0.46756499999999995,-0.087931,-29.224039,62.416774,-57.248565,2.150103,0.7039310000000001,7.125507000000001,0.211356,0.030534,-0.123352,-35.357479,60.071636,-61.612026,-0.9050540000000001,0.244221,4.668931,-0.402779,-0.518885,-0.29326399999999997,-37.341827,50.149894,-64.579177,1.9906743635066464,1.9966921571716343,7.01803466160608,0.33932060751208043,0.15411924519146772,0.13837865876836142,35.31917819935845,59.448306090906506,61.661262355312246,-2.1675708320366285,2.038894039777502,-1.9004004540813044,0.3176067954159541,-0.8459629212850345,-2.9078789125695526,1.606326318995617,-1.762208390269979,0.657037235571735,0.7496755627662912,1.4912826505871775,0.5289790060198564,0.25725627151890795,0.15194354743408972,0.03888430648561368,1.5793579283206975,2.619826485859609,1.455462729845191,0.5620134494089554,2.2239239439423173,0.2798187888097552,0.0661807892358101,0.023086841606855476,0.0015119892908671384,2.4943714657494453,6.86349081601151,2.1183717579684154,1.8441179387755102,1.3277257346938776,6.998070571428571,0.025805040816326525,-0.13280310204081633,-35.28384867346939,59.39055148979591,-61.64408246938775
0.8356197499999993,0.32562800000000003,0.33640274999999953,0.19854175000000002,0.10959075000000001,0.023369750000000022,1.2627669999999966,1.9843479999999971,2.661710250000006,1.6714462895821942,3.7672489065673194,-0.9464983562519,1.1346809867058356,0.8816503815327996,3.9629686333532304,1.7376111220161512,1.0836124495359956,1.2569599185987768,1,0.5147261317152282,0.26268746107482244,0.23428895688045756,0.01895284546026637,0.06416331751137619,0.016583647115094392,1.0698168501303842,1.3372708773377084,1.9407826429081378,3.797397,4.688086,7.063255000000001,0.253168,0.071547,-0.10257899999999999,-32.471153,62.416774,-56.201335,3.2826175,0.526751,6.8046685,0.2062955,-0.0209995,-0.13467,-37.883011999999994,59.891240499999995,-58.295795,-0.306473,0.138871,6.335381,-0.588404,-0.521282,-0.263436,-38.965385,55.561752,-66.673637,3.083153271951615,1.4956453758304806,6.760313009607,0.2520745490107044,0.20405222350393537,0.15021004941281393,37.22233131509229,59.63820679711751,59.076152728354764,-1.6544604223578965,2.2179316422343214,-0.5744068513386521,-1.5576302864579963,-1.5387594744638584,-2.0127370841256385,1.6520567920464542,-0.7412752955052166,-1.4478361363434418,1.1115216978318,1.163908662514744,0.22576572621863467,0.24277910440346284,0.17954016832191064,0.035470048043243475,1.7857313228328127,1.4471031817261846,2.765152137189641,1.2354804847508876,1.3546833746768598,0.0509701631350275,0.058941693534947506,0.03223467204106001,0.0012581243081900002,3.1888363573462266,2.094107618562047,7.64606634180444,2.87582225,0.9392931999999998,6.756542150000001,-0.0969672,-0.1459621,-37.179471649999996,59.62064745,-59.011403599999994
