IQRAccX,IQRAccY,IQRAccZ,IQRGyroX,IQRGyroY,IQRGyroZ,IQRMagX,IQRMagY,IQRMagZ,KurtosisAccX,KurtosisAccY,KurtosisAccZ,KurtosisGyroX,KurtosisGyroY,KurtosisGyroZ,KurtosisMagX,KurtosisMagY,KurtosisMagZ,Label,MADAccX,MADAccY,MADAccZ,MADGyroX,MADGyroY,MADGyroZ,MADMagX,MADMagY,MADMagZ,MaxAccX,MaxAccY,MaxAccZ,MaxGyroX,MaxGyroY,MaxGyroZ,MaxMagX,MaxMagY,MaxMagZ,MedianAccX,MedianAccY,MedianAccZ,MedianGyroX,MedianGyroY,MedianGyroZ,MedianMagX,MedianMagY,MedianMagZ,MinAccX,MinAccY,MinAccZ,MinGyroX,MinGyroY,MinGyroZ,MinMagX,MinMagY,MinMagZ,RMSAccX,RMSAccY,RMSAccZ,RMSGyroX,RMSGyroY,RMSGyroZ,RMSMagX,RMSMagY,RMSMagZ,SkewAccX,SkewAccY,SkewAccZ,SkewGyroX,SkewGyroY,SkewGyroZ,SkewMagX,SkewMagY,SkewMagZ,StdAccX,StdAccY,StdAccZ,StdGyroX,StdGyroY,StdGyroZ,StdMagX,StdMagY,StdMagZ,VarianceAccX,VarianceAccY,VarianceAccZ,VarianceGyroX,VarianceGyroY,VarianceGyroZ,VarianceMagX,VarianceMagY,VarianceMagZ,meanAccX,meanAccY,meanAccZ,meanGyroY,meanGyroZ,meanMagX,meanMagY,meanMagZ
0.20591199999999987,0.13408224999999996,0.13168800000000047,0.036552749999999995,0.044009000000000006,0.027231000000000005,1.3980642499999973,1.1274732500000013,1.1781292499999978,-0.5360810842974368,-0.6731638617446145,-0.5094332354968842,-0.0034105044930061723,0.4012103416659314,-0.02436109916238305,-0.5344244586973694,-0.267832151729293,-0.505865479346765,1,0.15264279400846265,0.10649531735525744,0.1100446670663599,0.02862682493601542,0.03494345168795854,0.021124116409267823,1.0698161088292768,0.9360883539245071,0.77630979543837,-1.091812,0.574638,7.599583999999999,0.046281,0.016194999999999998,0.151302,-18.039529,52.675430000000006,-69.640785,-1.4749029999999999,0.40464049999999996,7.3409965,-0.041871,-0.055845000000000006,0.1233385,-19.843482,50.600883,-70.688018,-1.69997,0.22027800000000003,7.187760000000001,-0.10632,-0.170229,0.057024,-22.188623,49.247917,-72.60794,1.4562052519967887,0.41742337161185944,7.364948887946732,0.05263250501917755,0.07346676680330536,0.12252878630014867,20.0354795874498,50.69269499186141,70.88354374883707,0.6558017024195087,0.004075769204840564,0.5070317512663555,0.2914338566554899,-0.7016884243863515,-0.761641327680597,-0.38356896854091616,0.5030775969389547,-0.6163369918279917,0.17441358484683475,0.08850446690448383,0.10561606351129108,0.03553606748617292,0.04416760036681963,0.023088461217723972,1.068527619245694,0.8574526867666094,0.8097229305123832,0.030420098579124023,0.007833040662046873,0.011154752871621071,0.001262812092381836,0.001950776922163086,0.0005330770414023439,1.1417512730908708,0.7352251100432771,0.6556512241975618,-1.44572253125,0.407932875,7.3641915625,-0.058707656250000004,0.1203338125,-20.0069660625,50.6854426875,-70.87891875
0.12570174999999995,0.15922249999999982,0.21908100000000097,0.06591425,0.09714025,0.050867249999999975,0.6764822499999994,0.8568757500000004,1.178134749999984,0.8452563922157141,4.803555920546907,2.5304341403326562,-0.252735550356181,-0.3580198227865692,1.06409139009547,0.010644619051375592,-0.7720299965445965,-1.3938335095947958,1,0.10294522634304587,0.14909196169514177,0.15974297603288737,0.054291410639456625,0.06732126023679312,0.03751057742930097,0.5349095370168584,0.9360905778278346,0.9056942671440267,-1.297723,1.7095470000000001,8.044928,0.09954500000000001,0.048686,0.229334,-16.055181,47.263568,-67.720863,-1.549127,1.0343475,7.285926999999999,-0.065307,-0.0723565,0.1245365,-17.137554,45.820407,-68.593559,-2.049541,0.8523790000000001,6.838189,-0.21551199999999998,-0.236277,0.087119,-18.761112,44.55764,-69.640785,1.5919136623136947,1.0812970656313976,7.292770652528845,0.10689497778527429,0.10097149920362959,0.13528022556398572,17.229134314089784,45.77533639229025,68.59695096029338,-1.2095054617583372,2.195437628105877,1.213010199301785,0.12235846068842365,-0.33058560983739826,1.182040901651159,-0.6244356194740714,0.35201653043563697,-0.10039181781872149,0.1978623981041638,0.20129292630698575,0.2643097408452317,0.08484511989153037,0.07889354464215739,0.0370409826111703,0.7010405230726678,0.7696787396626557,0.6823916272670721,0.03914952858353061,0.04051884218122959,0.06985963910567353,0.007198694369408162,0.006224191386204081,0.0013720343928010205,0.4914578149899998,0.5924053622886941,0.46565833296420267,-1.579569428571429,1.0623956428571428,7.28797942857143,-0.06301628571428572,0.13011035714285715,-17.214866,45.768865142857145,-68.59355671428571
0.10535050000000004,0.14605399999999996,0.17478599999999922,0.047671000000000005,0.041546000000000013,0.036485499999999976,0.901977500000001,0.8117785000000026,0.872691500000002,0.2502824152718288,0.8703228992514491,4.139722214747618,4.1018311436365265,3.6892294513180923,6.334559856438359,0.788887213350915,0.34096599020604357,0.5100922673929449,1,0.08519477128198746,0.12069419880188555,0.16329084314177142,0.032377067247725336,0.03237706724772535,0.023690500849500983,0.8023635642241723,0.5349080544146384,0.77630979543837,-0.038308999999999996,0.60337,7.709722,0.080636,0.113668,0.16408499999999998,-20.925855,50.691082,-67.19725,-0.253798,0.502808,7.475078999999999,-0.011244,-0.074887,0.12333800000000002,-21.827831,48.706733,-68.419021,-0.42618999999999996,0.067041,6.531715,-0.24454,-0.367306,-0.23939000000000002,-23.992573999999998,47.443965000000006,-70.688018,0.273076139147064,0.47382445745782265,7.410889888506517,0.07363101247979685,0.12632732781838352,0.13264284484785951,21.950187042645037,48.76122104486153,68.56461015031087,0.15228213434022084,-1.2385150938263334,-2.0854874389298343,-1.858067988231105,-1.1888134265271828,-2.6925886340713343,-1.118332379206194,0.6423931747271815,-1.0443075314503343,0.09409619092359099,0.14500671440401952,0.2745465387890042,0.07032735694450631,0.09461034848237034,0.09641429328669755,0.787152150479932,0.7889875694605816,0.9040125425008557,0.008854093146328889,0.021026947222248883,0.0753758019610222,0.0049459371348,0.008951118039955554,0.009295715949973334,0.6196085080051815,0.6225013847633161,0.8172386769988615,-0.2563522666666667,0.4510905333333333,7.405802666666667,-0.08371066666666668,0.09109560000000001,-21.936068533333337,48.75483746666668,-68.55865026666667
0.1484479999999999,0.225066,0.2825300000000004,0.032757,0.04367599999999999,0.03701900000000001,0.7215799999999994,0.5411869999999936,0.6981580000000065,6.399182274432576,-1.2364473173085244,4.170703084178428,0.9609022811460637,4.599963317288165,2.600341107631441,-0.23019068716712843,-0.3781835801562057,1.0012872735485097,1,0.09229495330641069,0.12779438082630887,0.2200893341327211,0.016190016226081183,0.035140637783019776,0.03395603861043381,0.5349080544146384,0.5349080544146384,0.517551230242602,-0.17718,0.5219630000000001,8.035351,0.130971,0.15521400000000002,0.270347,-17.317949,50.871475,-68.593559,-1.072657,0.363937,7.465501,-0.043202,-0.039466,0.128931,-19.121902,49.608707,-70.164405,-1.254626,0.08140700000000001,6.134257,-0.11351099999999999,-0.107378,0.075933,-21.10625,47.985149,-71.21163100000001,1.0395277324743646,0.33939637576334564,7.40064776943134,0.063229282868918,0.06741781782288715,0.14469390553265923,19.166897618354707,49.43388941308654,70.00234446827362,2.4966982826307937,-0.3054844686051826,-1.7515899257323877,1.2251150995176334,1.8978961737265423,1.4456322711465257,-0.12239521495812164,-0.3138192695344382,0.32545629702701606,0.23603395219505308,0.13066918086296372,0.38602755002833533,0.06006539627161746,0.05725421439515977,0.04334699882963448,0.9543262311158115,0.7425012521820196,0.5566933700846676,0.055712026588816604,0.017074434827397927,0.14901726938087892,0.0036078518292664364,0.0032780450660069207,0.0018789623075363326,0.9107385553957094,0.551308109491867,0.3099075082962247,-1.0123763529411764,0.3132338823529412,7.390573058823529,-0.03559658823529412,0.13804841176470586,-19.143124764705885,49.42831288235294,-70.00013088235293
0.13767350000000023,0.13767375000000004,0.29809350000000023,0.053597,0.061986,0.02982725,0.5862860000000012,0.9921755000000019,0.9163224999999926,-0.5193586311564493,-0.0453931955583311,0.14623377347104283,0.812156511546688,1.8909306540857918,-0.2475715289608309,-0.7644251396829445,-1.0379953880179325,-0.3093522529528383,1,0.10294522634304579,0.08874560359530836,0.23428895688045692,0.03968184837830244,0.04738174300011128,0.025467399608379994,0.4011840060154162,0.2674569924117645,0.77630979543837,-0.665622,0.842802,7.9443660000000005,0.129906,-0.0021809999999999998,0.16302,-21.286645,51.593055,-67.720863,-0.8428019999999999,0.739846,7.386489,-0.026824,-0.044525999999999996,0.1378525,-22.278820500000002,50.149894,-69.2044405,-0.948152,0.45971000000000006,6.852554,-0.079955,-0.22589,0.08338999999999999,-23.270994,49.789103999999995,-70.688018,0.8459771370713376,0.712346373367912,7.395683718524447,0.05800897180393736,0.08692670034431309,0.13701908913785213,22.36228806389903,50.46924612166086,69.33985235635875,0.5271963191260437,-0.8810968428317645,0.11942718259003338,1.2659285675476348,-1.5349346138366564,-0.8154451735570605,-0.24051883911188465,0.7522740450103376,0.08773880503062098,0.08189457103746087,0.1065668304965311,0.26655936392933144,0.0568420250364381,0.05955127134400659,0.023238967966901343,0.6093444845869841,0.6078590641751677,0.790657589503558,0.006706720765409725,0.011356489362076389,0.07105389449840976,0.0032310158102430557,0.0035463539186875,0.0005400496321666667,0.37130070089657724,0.36949264189991066,0.6251394238395769,-0.8420039166666667,0.7043300833333334,7.390878416666666,-0.06332375,0.13503400000000002,-22.353984583333332,50.46558541666667,-69.33534441666666
0.28731874999999996,0.13168775,0.1652085000000012,0.020239999999999994,0.06271850000000001,0.035354250000000045,1.5333605000000006,1.2176687500000085,0.829054499999998,2.3888366384428785,-0.2815464935756986,1.7227361809913422,0.6852425600592196,4.042027633506098,1.770105677297824,-0.6745497597463177,-0.2891964639700477,-1.2000191445520645,1,0.19169082993835396,0.07454598084757089,0.10294522634304636,0.01579342013263093,0.05054042702663746,0.021913602090622042,1.0698183327326014,1.2035460876373685,0.646930512840486,-0.7326630000000001,0.560272,7.561274000000001,0.124047,0.129647,0.22773600000000002,-19.843482,53.577404,-69.640785,-1.1349095,0.44534399999999996,7.3936715,-0.0465315,-0.0431945,0.1136175,-21.647436,51.3224635,-70.25167400000001,-1.948979,0.167603,6.043273,-0.19686900000000002,-0.625104,-0.215954,-23.631784,49.608707,-71.386169,1.1763709943650247,0.42430610731025986,7.224946034779163,0.08623215590610203,0.19447639882754045,0.14473043924679918,21.721400773422495,51.576745075744746,70.49070144915625,-1.3349123904142004,-0.8253392455535559,-1.8174765613321633,0.11784210918871374,-2.0724826066122857,-1.7288559989348704,-0.057026514240103916,0.04347702889165341,-0.28075447812682447,0.2805211749460407,0.10752653263513946,0.45385511711949567,0.0745188785348165,0.1714372227045158,0.11701083433030238,0.9867206872116073,0.9877299068001928,0.5513751690586263,0.07869212959310715,0.011561955220535712,0.20598446733555115,0.005553063258086735,0.029390721328637754,0.013691535350673469,0.9736177145713467,0.9756103687875176,0.30401457705442875,-1.1424345,0.41045550000000003,7.2106768571428566,-0.09181692857142855,0.08517842857142857,-21.698977714285714,51.567286357142855,-70.488545
0.684776,0.25379799999999975,0.19154600000000066,0.046339000000000005,0.062585,0.022104999999999986,2.3451389999999996,0.9019779999999926,1.2217640000000074,-0.917293310882572,-1.1400486259126605,0.03896967030194709,0.06607240167367312,-0.6490953226227236,2.804808272284971,-0.847517982735388,-0.4321388462779936,-0.15009659803217978,1,0.4898754946297467,0.19169008863724463,0.1774912071906172,0.03790420831831422,0.04501328595604857,0.01737461539866716,1.3372716186388107,0.802360599019727,0.77630979543837,-0.7949149999999999,2.188412,7.647469999999999,0.012725,0.080911,0.153166,-17.678739,49.067523,-65.277328,-1.795743,1.891516,7.163816000000001,-0.026424,-0.009904000000000001,0.11534900000000001,-20.925855,47.443965000000006,-67.022712,-2.178835,1.6472950000000002,6.876498,-0.107918,-0.09965399999999999,0.029593,-22.369018,46.361595,-69.291709,1.7236770523397662,1.9089585943045893,7.176638912754895,0.046801051695070976,0.05437212629106724,0.11563682753039412,20.65645522445862,47.52473318674794,67.29700542236327,0.45236352461555124,0.13777892855010965,0.5505677416675072,-0.8208897825963147,0.2360023913053664,-1.3957981391753547,0.6695333915008649,0.4606521073140724,-0.1179983023421521,0.4059923871708838,0.16356813616330568,0.19617900556333767,0.03407700445292146,0.05197961696785161,0.026959117283378586,1.4211472455330274,0.7852499340232616,0.9947830779574985,0.16482981844071282,0.02675453516793771,0.03848620222382008,0.001161242232484429,0.002701880580124567,0.0007267940046989619,2.019659493486111,0.6166174588835367,0.9895933721905945,-1.675181411764706,1.9019380588235293,7.17395705882353,-0.01595141176470588,0.11245035294117647,-20.607510352941176,47.5182454117647,-67.2896525882353
