IQRAccX,IQRAccY,IQRAccZ,IQRGyroX,IQRGyroY,IQRGyroZ,IQRMagX,IQRMagY,IQRMagZ,KurtosisAccX,KurtosisAccY,KurtosisAccZ,KurtosisGyroX,KurtosisGyroY,KurtosisGyroZ,KurtosisMagX,KurtosisMagY,KurtosisMagZ,Label,MADAccX,MADAccY,MADAccZ,MADGyroX,MADGyroY,MADGyroZ,MADMagX,MADMagY,MADMagZ,MaxAccX,MaxAccY,MaxAccZ,MaxGyroX,MaxGyroY,MaxGyroZ,MaxMagX,MaxMagY,MaxMagZ,MedianAccX,MedianAccY,MedianAccZ,MedianGyroX,MedianGyroY,MedianGyroZ,MedianMagX,MedianMagY,MedianMagZ,MinAccX,MinAccY,MinAccZ,MinGyroX,MinGyroY,MinGyroZ,MinMagX,MinMagY,MinMagZ,RMSAccX,RMSAccY,RMSAccZ,RMSGyroX,RMSGyroY,RMSGyroZ,RMSMagX,RMSMagY,RMSMagZ,SkewAccX,SkewAccY,SkewAccZ,SkewGyroX,SkewGyroY,SkewGyroZ,SkewMagX,SkewMagY,SkewMagZ,StdAccX,StdAccY,StdAccZ,StdGyroX,StdGyroY,StdGyroZ,StdMagX,StdMagY,StdMagZ,VarianceAccX,VarianceAccY,VarianceAccZ,VarianceGyroX,VarianceGyroY,VarianceGyroZ,VarianceMagX,VarianceMagY,VarianceMagZ,meanAccX,meanAccY,meanAccZ,meanGyroY,meanGyroZ,meanMagX,meanMagY,meanMagZ
5.493776,1.4090599999999998,2.725937499999999,0.16898025,0.13968500000000006,0.20000574999999998,14.115931500000004,2.1196442500000003,8.072395500000013,-1.0933669706987053,-0.6805626489802883,-1.0103115761416555,-0.31834498000771516,-0.6378037794398264,-0.76311688802065,-1.4043047269350837,-0.21495815032261412,-0.5328745628503273,0,4.866816729306422,1.3240868371096386,2.2541417413059337,0.13997321675022315,0.11134713311531674,0.18676191886293214,11.901723484554497,1.3372701360365906,4.657875081254651,6.01933,4.017675,8.495061,0.183702,-1.376659,0.728151,-5.592255000000001,44.377246,-45.030883,-1.292935,3.012059,5.8086295,-0.19647,-1.6461755,0.5265465,-16.9571585,39.686966999999996,-60.3902565,-6.622699000000001,0.799704,1.91067,-0.693024,-1.83473,0.194712,-31.388782,38.784991999999995,-63.706485,4.244135379820351,3.0411686939983835,5.980751788268637,0.34721166212724863,1.6396344305325603,0.5308685667469868,19.784356542187666,40.51658812734012,58.09460826629155,0.23345083940626887,-0.6760758254142557,-0.3436174512446873,-0.28267222947171394,0.446800120879394,-0.5059640941984517,-0.16307457388872873,1.093180463241284,0.9470293787681647,4.186553130498821,1.1071299355958506,2.1720651954230674,0.2619145256321972,0.14395079556734727,0.17319000341307872,9.11705426620915,1.969717007673474,6.63908749436743,17.527227114489474,1.2257366942924723,4.717867213168248,0.06859921873713888,0.02072183154447221,0.029994777282222218,83.12067849300247,3.879785090318144,44.077482757865994,-0.696748166666667,2.8324848333333335,5.5723895,-1.6333031666666666,0.5018233333333334,-17.558476166666665,40.46868083333334,-57.714002
7.47028975,2.54875725,3.4729667499999994,0.5865035,0.3597984999999999,0.25000849999999997,13.123759,2.570630999999999,13.308547750000002,-1.4168045816952124,-1.4701461566845402,-0.6256835584957323,-1.4308683351481761,-0.73324615357545,-0.5232538099407917,-1.2479891248663084,-1.4950277230051714,-1.3769269828567012,0,6.375492731727773,1.916907558082431,2.3286892047557233,0.5142880227596602,0.3237743789827995,0.23453951665538447,11.901724967156712,1.6047249045450065,7.374974191311151,7.039312,3.122198,8.600411,0.788249,1.930504,0.533471,-10.462928,45.820407,-43.634578000000005,-0.7182974999999999,1.501241,6.926778,0.25880499999999995,1.4564545,0.2560985,-24.3533665,44.64783800000001,-60.215718499999994,-5.789474,-0.933786,0.359149,-0.233621,0.8444510000000001,-0.390926,-34.275108,41.851711,-66.324562,4.63406441966756,1.9125075448617623,6.517595899863959,0.44935476400241564,1.4680763356955138,0.3308806716413537,25.41408594332141,44.253324937441676,57.61628556581204,0.2567347782392004,-0.2585830411436294,-0.893196615860589,0.050886662818698906,-0.2829618977818236,-0.7047557395858325,0.2427550764929694,-0.36935585139452165,0.5296480369785763,4.6339125971477,1.5202117005103177,2.908634446981478,0.36481393627376074,0.341228396237647,0.29348060937957304,8.46604269032628,1.5286360315530374,8.493850135058928,21.47314595800414,2.3110436143684723,8.460154346167249,0.13308920809955557,0.11643681839891663,0.08613086808180555,71.67387883442701,2.336728116962219,72.14549011684058,0.037511166666666394,1.1604488333333334,5.8325725,1.4278695,0.15281083333333334,-23.962509999999998,44.22691533333333,-56.9867605
5.33335625,1.06307975,2.2039744999999997,0.185093,0.4201864999999998,0.10519650000000003,8.343283499999998,1.6686554999999998,10.079586750000004,-1.4016923969889488,-0.9394689833177492,-1.1383497111684135,-1.0356823118531466,-0.9802029511197201,-0.7251742908996759,-0.9832195789448503,-1.7301891936670464,-1.2274553257170926,0,4.511833573624079,0.5644229580795365,1.2175915197543812,0.1176645011683693,0.3308819740183156,0.04145874713718141,5.750271221871756,1.203545346336261,9.574520588522825,6.40721,2.5044619999999997,6.158201,-0.017369,-1.2794530000000002,0.336394,-12.988463000000001,47.624359000000005,-47.299884000000006,2.205172,0.5818205000000001,5.3058215,-0.32137400000000005,-2.0457885,0.04610500000000001,-27.7808765,46.1811975,-59.8666415,-3.620217,0.134082,2.083062,-0.424573,-2.39853,0.005092,-33.373129999999996,45.27922,-69.815322,4.212638719381683,1.338291717133544,4.995364606411979,0.3135654348816208,1.9860748688958079,0.17167050455887872,26.624201456646233,46.326921697521776,59.78523169940067,-0.23778501679245406,0.864158293738156,-0.6916330422806171,0.7403248476228206,0.6639042384414574,1.0790796441047725,0.7442702751644997,0.18256638910616596,0.2055814636421905,3.8090315352869797,0.9420650438049314,1.6550418456012674,0.15744445749612782,0.4142637719611745,0.13309770230736517,7.71848913093432,0.982905810732266,8.258238795413774,14.508721236810686,0.8874865467591873,2.7391635106912497,0.024788757196249997,0.17161447275949998,0.017714998359500002,59.57507446435123,0.9661038327712532,68.19850800207713,1.79933425,0.9505462499999999,4.713226499999999,-1.94239,0.108424,-25.480836500000002,46.31649350000001,-59.21212225000001
9.2109625,2.952201,3.196421999999999,0.4062715000000001,0.670061,0.16272199999999998,18.219925500000002,5.051066999999989,14.835758499999997,-1.4647982226685337,-1.157179630700938,-1.181995854029232,-0.25096657311594495,-1.382294275455337,0.6054549592243479,-1.426483168340142,-0.7830209516887043,-1.265199322426504,0,7.639232469436467,2.1156985700452093,1.3560339497139973,0.20531965083196682,0.5425197342044438,0.14451368604439654,13.907633136416038,4.54672439293328,8.5394462974798,7.3553619999999995,4.922729,8.049716,1.288398,2.029043,0.221344,-5.592255000000001,48.887126,-37.176662,-1.589831,3.2083939999999997,6.498195,0.31100300000000003,1.637818,-0.22421,-24.172971,42.212501,-58.295795,-7.704934,-0.641679,2.078273,-0.320708,0.9576370000000001,-0.406639,-34.816295000000004,35.177085,-64.055564,5.493819661679996,3.388503277878471,6.063974865877072,0.6129099260310837,1.6314640293065437,0.2780969773080196,24.752219517111552,42.72850691401618,54.279211357004826,0.1422742774010593,-0.5809157803014993,-0.7342068652360169,0.4886107187093195,-0.37126884769340995,1.2614504906582358,0.30554411194976755,-0.25184255053379867,0.5364142752628541,5.454260960535806,1.9919849774726759,2.308173396793151,0.4666130408144659,0.3995697051276995,0.19194884316804575,10.705260879913896,4.1983396409158065,9.681989733091202,29.748962625624976,3.968004150476817,5.327664429663632,0.21772772985812244,0.15965594925583673,0.036844358393551026,114.60261050701483,17.62605574048506,93.74092519168343,-0.6580971428571429,2.7411585714285716,5.607506285714286,1.581777142857143,-0.20123014285714283,-22.317476571428575,42.52175028571428,-53.40872457142858
6.383267,0.9864620000000002,1.2402599999999993,0.35607000000000005,0.38057200000000013,0.726521,6.133441999999999,1.6235579999999956,5.759766000000006,-1.3246137244519858,-0.4346912391504958,-0.6266952167916062,-0.5093026520334054,-1.4852968550157422,-1.4469052207021589,-0.7429966702048412,-1.1610881199643692,-0.31196505974512245,0,5.367341755671695,0.5679730490917481,1.064948725745918,0.33482940242508663,0.3683910688453982,0.3573367867042202,5.081635412552353,2.1396337002607577,4.657875081254645,6.167778,4.448653,9.7018,1.510509,-1.675471,1.024832,-5.411859,42.032104,-44.856346,-0.038308999999999996,1.91067,6.119891,0.18796300000000002,-1.923947,0.171542,-19.482692,40.588943,-60.739334,-6.23003,1.527578,2.15968,-0.696752,-2.361511,-0.069478,-30.847596999999997,38.965385,-65.45186600000001,4.416648140955084,2.6772939962433338,6.473540748190793,0.7622483704103277,2.0410617437310905,0.5608258647774726,20.54527475433728,40.82158655717149,59.06635395706054,-0.05340408447478436,1.06393146196586,-0.08902810359458244,0.5844499927750496,-0.08582121143902255,0.47567423242483176,0.22079006515208086,-0.3443259500953177,1.0800233849208822,4.4145538227318335,1.0732870572664146,2.4180859329594058,0.7178284759296193,0.25479411795596857,0.4306166990707164,8.293005956669548,1.1488783518090322,7.32844792814619,19.488285453796244,1.1519451072956,5.847139579176161,0.5152777208554401,0.06492004254496003,0.18543074151855996,68.77394779735661,1.3199214672554382,53.706149035550176,0.13599759999999997,2.452745,6.0049638000000005,-2.0250958,0.35929779999999994,-18.797190399999998,40.8054164,-58.6099652
8.65548,3.0551565000000003,3.8093690000000002,0.5976225,0.6751214999999999,0.16937950000000002,17.949331,4.239290499999996,18.937404500000014,-1.5042111367702258,-1.2066043850098653,-0.7943284298754674,-0.8178167634278974,-1.078289418113089,0.040383185230924656,-1.2381225436712273,-1.509977534760594,-1.694052144586219,0,7.8025262777826745,1.6897187832263982,1.4767296311181022,0.4449926776689268,0.6396524185498382,0.17412718275682743,11.233088416536198,3.209457222101129,11.903466283462343,6.962692999999999,4.573158,8.777591000000001,1.274017,2.4437029999999997,0.189119,-7.396207,49.428314,-41.191043,-0.019155000000000002,3.4334599999999997,7.7815520000000005,0.414602,1.724372,0.058889,-28.682853,47.263568,-60.215717000000005,-6.455097,-1.6041969999999999,0.08619600000000001,-0.365184,0.877474,-0.34405399999999997,-36.800643,43.294872,-68.244483,4.962373968629603,3.004851622889604,6.715242324251758,0.6382330855810325,1.7485633606502713,0.16417671674448847,28.14885247862278,46.9360207611245,56.68780670173312,0.009844964231705744,-0.5991161236042543,-0.9078806581076607,0.131669723796514,-0.08295810445179073,-1.0000020529735938,0.5156205694829286,-0.2820288083991002,0.21467856023859577,4.962302248452939,2.180014221715135,3.119271908070189,0.5331804881097766,0.5060535903351561,0.16417157316387646,10.903923781550318,2.352914370932226,10.389570409275597,24.6244436050011,4.752462006880245,9.729857236475839,0.28428143290097957,0.256090236291102,0.026952305435102044,118.89555383385859,5.536206036939392,107.9431732892951,-0.02667957142857182,2.0680114285714284,5.946816142857143,1.6737334285714287,-0.0012995714285714238,-25.951153,46.877007571428564,-55.72758971428572
5.33575025,1.19237275,2.4601675,0.45547449999999995,0.2755747500000001,0.2815005,8.658973499999998,0.36079124999999834,9.250533250000004,-1.277622490286891,-1.210456028153838,-1.2491919852023292,-1.9536656132482062,-0.8059731372245365,-1.0287357703544475,-1.4985754535808775,-0.666666666666667,-1.0217289731250458,0,4.171050040689475,1.2566395556842724,2.229292586822671,0.3302896744320224,0.15912324830555066,0.18873674501798166,7.2212698541142295,0.0,6.210500602540265,5.703279,2.499674,7.791129,-0.12629400000000002,-1.917023,0.092711,-16.957159,48.345943,-48.172573,1.8627835,1.1013890000000002,5.538071,-0.35453049999999997,-2.0854704999999996,-0.081329,-25.616132999999998,48.345943,-63.7064855,-4.922729,-0.258587,2.475731,-0.6442869999999999,-2.742083,-0.5499189999999999,-32.110363,46.902778000000005,-69.466247,4.1857302613106535,1.4971704633689011,5.685707241913094,0.4407077986824149,2.2302825412625973,0.2903513045656933,25.749178165219554,47.9892206589017,61.79987358471792,-0.4220668537417431,0.025431757158840607,-0.2601948229084235,-0.03331260505987876,-0.9576527254353305,-0.7219301529195343,0.18964114910788263,-1.1547005383792515,0.7267775179928532,4.031286354173589,1.0036301050412884,1.9639331563199267,0.23956123603214685,0.3178869098794217,0.2455387218765097,5.85382004603921,0.6249087759262819,8.128690427607983,16.251269669346186,1.0072733877451876,3.8570334424927495,0.05738958580924998,0.10105208747268757,0.06028926394074999,34.267209131410496,0.39051097822968395,66.07560806788567,1.12652925,1.1109662500000002,5.3357505,-2.2075117499999997,-0.1549665,-25.074947,47.98515175,-61.262947749999995
10.451222999999999,2.8684000000000003,4.12542,0.421851,2.0567905,0.4173235,29.2240395,2.7961255000000094,16.6684075,-1.1072829745483332,-0.1830560216274706,-0.29099997761472896,0.7368884495467833,-0.7773978391836556,2.190912922721334,-1.62521827510877,1.0959548183975318,-0.25293240870508304,0,2.4067852766155053,1.277937877854215,1.9666051257478485,0.32574846383673983,1.5762285486042305,0.36088910161975957,9.360907260880536,2.139633700260768,5.951730176526737,8.519003999999999,5.995387,9.553352,1.14139,2.436246,1.3526719999999999,-1.082372,50.871475,-26.8789,-7.36494,4.084716,2.552349,-0.07303,-0.027748000000000002,0.110555,-8.658975,46.541988,-68.942634,-9.227724,-2.241087,-3.71599,-1.479467,-2.77271,-0.707847,-36.620246,37.522224,-73.30609100000001,6.92688449696064,3.7701543436026985,4.707658299998781,0.5343884052292344,1.3870878727579137,0.40195484801409853,21.125486072812137,46.09401035711027,61.97182519251919,0.7722139715688164,-1.0315133956901141,0.02158497117847044,-0.0924031750322983,-0.08594527872477126,0.827821818545985,-0.4349824282458575,-0.954386590280872,1.0828985516794514,6.240378105265719,2.3909365324507377,3.282418771437931,0.527065998276998,1.385017696520915,0.3957646198794269,14.22963214308089,2.9298428112187667,14.806892077523948,38.94231889667976,5.716577502207558,10.774272991088099,0.2777985665397284,1.9182740196761017,0.15662963434830726,202.48243092740083,8.583978898450285,219.24405299544145,-3.0065611481481485,2.915044814814815,3.3745775555555557,-0.07575451851851848,0.07027137037037037,-15.614215666666666,46.000802296296285,-60.17693133333333
