IQRAccX,IQRAccY,IQRAccZ,IQRGyroX,IQRGyroY,IQRGyroZ,IQRMagX,IQRMagY,IQRMagZ,KurtosisAccX,KurtosisAccY,KurtosisAccZ,KurtosisGyroX,KurtosisGyroY,KurtosisGyroZ,KurtosisMagX,KurtosisMagY,KurtosisMagZ,Label,MADAccX,MADAccY,MADAccZ,MADGyroX,MADGyroY,MADGyroZ,MADMagX,MADMagY,MADMagZ,MaxAccX,MaxAccY,MaxAccZ,MaxGyroX,MaxGyroY,MaxGyroZ,MaxMagX,MaxMagY,MaxMagZ,MedianAccX,MedianAccY,MedianAccZ,MedianGyroX,MedianGyroY,MedianGyroZ,MedianMagX,MedianMagY,MedianMagZ,MinAccX,MinAccY,MinAccZ,MinGyroX,MinGyroY,MinGyroZ,MinMagX,MinMagY,MinMagZ,RMSAccX,RMSAccY,RMSAccZ,RMSGyroX,RMSGyroY,RMSGyroZ,RMSMagX,RMSMagY,RMSMagZ,SkewAccX,SkewAccY,SkewAccZ,SkewGyroX,SkewGyroY,SkewGyroZ,SkewMagX,SkewMagY,SkewMagZ,StdAccX,StdAccY,StdAccZ,StdGyroX,StdGyroY,StdGyroZ,StdMagX,StdMagY,StdMagZ,VarianceAccX,VarianceAccY,VarianceAccZ,VarianceGyroX,VarianceGyroY,VarianceGyroZ,VarianceMagX,VarianceMagY,VarianceMagZ,meanAccX,meanAccY,meanAccZ,meanGyroY,meanGyroZ,meanMagX,meanMagY,meanMagZ
0.3555564999999987,1.21990825,0.31724774999999994,0.10033675,0.16185549999999999,0.11285300000000001,2.3902387500000017,3.202018499999994,1.5272112500000006,2.899846499590204,-0.6089072000821503,8.634181516612186,2.1545348195571385,3.6309182487435008,0.9523474322032186,-1.1993642882922135,-1.3392616429041293,1.8707675264138857,4,0.27688782512366816,0.8732571545064549,0.2449384886159832,0.06436050360643744,0.1220077843674815,0.08153645030782483,2.2733621964666346,2.5408191888783938,1.1644698822653252,9.658702,-0.311262,-0.713508,0.220075,0.79014,0.188703,-28.322063,50.149894,-17.977445,9.373777,-2.356015,-3.9338735,0.021666499999999998,-0.022269999999999998,0.036634,-30.577003500000004,47.624360499999995,-20.246444500000003,8.418442,-3.160507,-5.056812,-0.5567810000000001,-1.04454,-0.219833,-33.373129999999996,44.55764,-31.591434000000003,9.340282824544367,2.35909758645138,3.869043404760043,0.17822501396727783,0.3271213813154488,0.09931735825327358,30.940650741101123,47.68180155845206,21.716872716116857,-1.4913748152295716,0.7136496849235692,2.630542591484297,-1.5006814509240314,-0.7675411555621775,-0.6915831919176272,0.12766874330660705,-0.1687286341960867,-1.6098039860585054,0.2787774779992196,0.8231440359757848,0.7759648394893413,0.17529824530100574,0.3238954834274897,0.09113388880191106,1.4849764787099087,1.7694256385642797,3.3285136876073964,0.07771688223960535,0.6775661039625042,0.6021214321237192,0.030729474805611577,0.10490828418472727,0.00830538568815909,2.2051551423216798,3.130867090408609,11.07900336858979,9.336121590909089,-2.2108313636363635,-3.79043209090909,-0.045827,0.039478500000000014,-30.90499495454545,47.64895940909091,-21.46027859090909
0.30886800000000036,0.3854859999999998,0.8236475000000003,0.23103250000000003,0.34834699999999996,0.182696,1.5333600000000018,2.7961255000000023,7.592415499999998,-0.6831927532007489,2.7415480898930538,5.451210664912111,-0.010103076295648439,1.000010183229696,3.745960908094202,2.3410122860427984,-0.7095359521143583,0.15233270683537503,4,0.2271895161571414,0.24138839760377176,0.532475104174069,0.1666252155311891,0.20848055876182073,0.1160847885045516,1.0698220392381463,2.139633700260768,4.399103172638897,9.606027000000001,-0.253798,2.0591180000000002,0.466954,0.924099,0.797244,-25.976924,52.49503299999999,-16.930215,9.088853,-3.25628,-3.6537379999999997,0.045103,-0.002163,-0.00944,-33.192737,50.510684000000005,-21.119135999999997,8.844633,-3.8165519999999997,-4.568369000000001,-0.540269,-1.262656,-0.281885,-34.996688,45.098827,-40.841964000000004,9.149284828173435,3.0687115043552415,3.481630784934826,0.2597040941795712,0.4704359272524178,0.23282068054044466,32.5541515940051,49.71031641031443,25.302986008088542,0.6273038319234037,1.906048569221729,2.436746581796882,-0.5826588571745513,-0.5040111432701443,1.763662985406372,1.6354772858857853,-0.6174482631933846,-1.0709549961431493,0.21231462074093146,0.8837030859853231,1.4916879714810618,0.25924118937713797,0.45790658580468346,0.22960159951979833,2.1863729197609216,2.1062364844176518,6.603255113214655,0.04507749818036556,0.7809311441799833,2.225133004261285,0.06720599426967312,0.20967844132330193,0.05271689450204985,4.780226544263898,4.43623212829203,43.602978090195485,9.14682105263158,-2.9387172631578946,-3.1458893684210523,-0.10784952631578944,0.03858205263157895,-32.480649,49.665675526315795,-24.426177
0.2633749999999999,0.4884420000000005,0.5794269999999999,0.080695,0.14807399999999998,0.056991999999999994,1.443163999999996,2.1647450000000035,4.363455999999999,2.549117077490928,3.0619168011870546,3.9648922075250264,5.818546956594693,1.3766119052642054,1.7243659337865562,1.8542729960001676,-0.30778951001803057,0.9513373643071787,4,0.2342896981815656,0.2413883976037711,0.4827767952075415,0.06159619177003374,0.1271420358501664,0.0438272041812441,1.0698175914314914,1.8721826382578732,3.1052495599690255,9.553352,-0.785338,2.351226,0.173469,0.9286260000000001,0.244896,-27.961273,52.855823,-21.817289000000002,9.184626,-3.4190940000000003,-2.3991119999999997,0.038977,-0.028794999999999998,0.027045999999999997,-34.635898,51.412662,-24.78444,8.097603,-3.888382,-3.5819080000000003,-0.8340200000000001,-0.925494,-0.147394,-37.522224,46.361595,-38.922042,9.1252315406521,3.2106235844086717,2.426088311154653,0.22304742091494698,0.38214568978286156,0.08259355624352532,34.15036715559574,50.68140373825699,27.042255614432136,-1.6674183303718821,2.008835294749646,2.0545558926407965,-2.503038830762609,0.14233192635404648,0.44504752923628743,1.3361252985730099,-0.8403061419154972,-1.3060733594354543,0.3384412976341342,0.76709866889069,1.3138923720639943,0.22063537338793104,0.38198801981319686,0.07685282324434055,2.0937670875268157,1.8362252930486525,4.4149454516194195,0.11454251194427661,0.5884403678138684,1.72631316536795,0.04867996799003175,0.14591484728080725,0.005906356440625851,4.383860616810525,3.3717233268316096,19.491743340775,9.118953238095237,-3.117637476190476,-2.0395076190476193,-0.01097638095238095,0.030254571428571433,-34.08612204761904,50.64812890476192,-26.67942738095238
0.2071095000000014,0.3220365000000003,0.8260412500000012,0.105263,0.11591575,0.086421,1.4882602499999962,1.533358750000005,1.8762879999999988,1.733260818580563,-1.0216833771092235,-0.4052602485151553,8.607872734389844,2.9050890200305597,2.7701778566066437,-0.7434399064551944,-0.06067046726762637,3.003247155758359,4,0.17039176646730564,0.23783830659155933,0.4508289413020743,0.07857495237635989,0.09456555860405207,0.06929608639184259,1.0698168501303789,1.0698168501303842,1.811396688600261,9.266034,-3.232337,-2.643333,0.549513,0.5989220000000001,0.116796,-31.569177000000003,55.742149,-15.53391,9.072092999999999,-3.601063,-3.158113,0.0417735,0.044842999999999994,0.002145,-33.643724000000006,52.4048365,-17.8029075,8.092815,-3.965,-4.554004,-0.106966,-1.010451,-0.297066,-35.898666,50.330290999999995,-26.006207999999997,8.978775909224478,3.572365704238369,3.395176712300274,0.13833572198261013,0.3202589729312826,0.09014291154355954,33.6898310558771,52.57452410621753,18.272794216926645,-1.6177576599142565,-0.042123014232633475,-0.7692462833310298,2.75525260139152,-1.3854303275370763,-1.5213063616729814,-0.10539126384791063,0.45873762041812,-1.7130500868510712,0.30930318183770344,0.21539491292985544,0.52124251393103,0.12771416774629,0.31983206892485,0.08894727848139874,1.1327261531288173,1.3111581742288572,2.445950572712545,0.09566845829492744,0.04639496851606,0.27169375832914,0.0163109086431275,0.10229255231275,0.007911618349247501,1.2830685379820088,1.71913575784715,5.9826742041528265,8.973446849999998,-3.5658662000000008,-3.3549264,-0.016530499999999993,-0.01463305,-33.670783300000004,52.55817205000001,-18.10834985
0.325626999999999,0.6129470000000001,1.000828,0.112653,0.190685,0.092414,1.6235580000000027,3.0667199999999966,1.2217680000000009,4.002536230598291,3.7459461762017154,2.3151520823789564,0.5428736380481252,2.28918692014567,0.6074292369529313,-0.717550947620881,-0.9170968317515134,3.3757975847779162,4,0.11359401677746463,0.5963708119850049,0.8306590275643524,0.07304632870355252,0.13503689266370875,0.07699598101365142,1.3372731012410306,2.6745417546754067,1.0350831866563435,9.529409,-0.268164,0.842802,0.18785,0.246581,0.362077,-32.110363,55.200962,-18.326522,9.084064999999999,-3.3041669999999996,-2.269819,0.023531,0.023937,0.054477,-33.914318,51.412662,-19.722829,7.704934,-4.4199209999999995,-3.495712,-0.627622,-1.223507,-0.141002,-36.259456,47.804756,-31.242359000000004,9.083129974416298,3.3307092824943028,2.3369728462503017,0.23173439995925552,0.3926485165045681,0.1287085452972094,34.044041928920116,52.06773725805018,21.09838125143701,-1.851716249958851,1.771622251399883,1.5923658564981384,-1.382796080118755,-1.8306329257280967,0.6975067417444235,-0.06021234640228269,-0.17592306647899333,-2.09694823103554,0.40133453873674824,0.8744636057107954,1.0517280391181163,0.2218663717386576,0.3760096420578911,0.11498118069339111,1.1085089703745328,1.9513307947488527,3.313592218180827,0.16106941198303848,0.7646865977127255,1.106131868267238,0.049224686908476194,0.1413832509205034,0.013220671913646257,1.2287921374008066,3.8076918705351894,10.979893388388533,9.074259238095237,-3.2138664761904763,-2.086938,-0.11309114285714286,0.057837857142857135,-34.025990047619054,52.03115961904761,-20.836549571428574
0.3806969999999996,0.7685782500000005,0.8451960000000001,0.19254925,0.22410875,0.09347825000000001,1.578460750000012,3.3373135000000076,1.7453829999999986,1.041330711510163,0.8326558176369998,-0.828188540714867,1.1655250012742941,2.0575494559572336,-0.50984912331664,-0.4867469712087411,-1.1386950410304737,7.253355779508771,4,0.2307388658682461,0.4792267041953311,0.6567186526870565,0.14589547131204378,0.10680592252003432,0.06554436147791415,0.9360935430322693,2.5408169649750665,1.42323882567664,9.653914,-1.80532,-1.431806,0.268279,0.368821,0.177251,-31.929969,58.628475,-13.264911999999999,8.990686,-3.8883820000000004,-2.4589705000000004,0.0118125,0.0380515,0.034503,-34.455501,55.2911605,-15.272103000000001,8.217319,-4.5444260000000005,-3.648949,-0.48833699999999997,-0.9308209999999999,-0.07681900000000001,-36.620246,51.773452,-23.388134,9.051030734306636,3.6907173344324407,2.5867488541157124,0.17095890163384297,0.2993642119327225,0.07713154734834508,34.2780507813208,54.915365026023196,15.55664237567791,-0.48222772987894674,1.1477397578917747,-0.33167492124242404,-0.9787221016708771,-1.5239021474240269,0.45499702699565736,-0.04274941838764802,0.1883507267191012,-2.565378617397809,0.30188795328033136,0.6586457860090353,0.6020327203132131,0.17041966496794755,0.2902121189644739,0.0722541088565038,1.1991874577271857,2.0722703309097397,2.118394583655779,0.09113633633578752,0.43381427142746,0.3624433963277275,0.02904286220778749,0.08422307399384997,0.0052206562466475,1.438050558770191,4.294304324368762,4.487595612062141,9.04599475,-3.6314708,-2.5157158500000003,-0.0734565,0.026992949999999995,-34.2570681,54.8762518,-15.4117334
