IQRAccX,IQRAccY,IQRAccZ,IQRGyroX,IQRGyroY,IQRGyroZ,IQRMagX,IQRMagY,IQRMagZ,KurtosisAccX,KurtosisAccY,KurtosisAccZ,KurtosisGyroX,KurtosisGyroY,KurtosisGyroZ,KurtosisMagX,KurtosisMagY,KurtosisMagZ,Label,MADAccX,MADAccY,MADAccZ,MADGyroX,MADGyroY,MADGyroZ,MADMagX,MADMagY,MADMagZ,MaxAccX,MaxAccY,MaxAccZ,MaxGyroX,MaxGyroY,MaxGyroZ,MaxMagX,MaxMagY,MaxMagZ,MedianAccX,MedianAccY,MedianAccZ,MedianGyroX,MedianGyroY,MedianGyroZ,MedianMagX,MedianMagY,MedianMagZ,MinAccX,MinAccY,MinAccZ,MinGyroX,MinGyroY,MinGyroZ,MinMagX,MinMagY,MinMagZ,RMSAccX,RMSAccY,RMSAccZ,RMSGyroX,RMSGyroY,RMSGyroZ,RMSMagX,RMSMagY,RMSMagZ,SkewAccX,SkewAccY,SkewAccZ,SkewGyroX,SkewGyroY,SkewGyroZ,SkewMagX,SkewMagY,SkewMagZ,StdAccX,StdAccY,StdAccZ,StdGyroX,StdGyroY,StdGyroZ,StdMagX,StdMagY,StdMagZ,VarianceAccX,VarianceAccY,VarianceAccZ,VarianceGyroX,VarianceGyroY,VarianceGyroZ,VarianceMagX,VarianceMagY,VarianceMagZ,meanAccX,meanAccY,meanAccZ,meanGyroY,meanGyroZ,meanMagX,meanMagY,meanMagZ
0.2298549999999997,0.768577500000001,0.4836530000000001,0.065914,0.075236,0.05885699999999999,4.6902764999999995,4.509884000000014,2.094462,3.5082337812255853,2.081352267700961,4.21712318390605,4.250288908300494,2.0993768749297743,1.3327986020818896,0.0283569620533477,2.533539800366004,6.227893865566916,4,0.1774912071906172,0.2058904526860927,0.25558727905039935,0.04106363364594966,0.05804387685449431,0.043827204181244105,1.6047286110505594,1.6047300936527635,1.2938565778743065,8.705761,0.23464400000000002,5.224414,0.68221,0.895541,0.705171,-24.533761,85.68776700000001,-16.581139999999998,7.0441,-6.670586,-1.058291,0.20869200000000002,0.052904,-0.131607,-27.059295000000002,82.801445,-18.6756,5.23878,-7.906057000000001,-1.546733,-0.17401,-1.173234,-1.130574,-40.76934,53.03621999999999,-53.408725,7.065570912350105,6.120106248310304,1.6616514553102655,0.2697438704081052,0.3841259388155057,0.36938106578215635,29.86945326677967,79.57670252565238,22.993957646888973,-0.393376408895523,1.8013538001351805,2.2712208085094368,0.7867589061612135,-1.0828038852239954,-0.008263636867558514,-1.2430568253312948,-1.892913280011697,-2.582340638773959,0.5385378264815375,2.042269027203114,1.6115916945383844,0.13144360722776718,0.3839672372711041,0.3532948116608088,4.916742127987751,7.954022688497673,7.797149881832741,0.2900229905514586,4.170862779473153,2.597227789905101,0.01727742188104753,0.14743083929760437,0.12481722394644634,24.174353153129523,63.26647692913575,60.79554627976433,7.045017340425531,-5.769301319148935,-0.40479348936170223,-0.011040723404255324,-0.10781997872340425,-29.462007489361707,79.17818580851065,-21.631609787234044
0.28492475000000006,1.2306825000000012,0.28492425,0.04853650000000001,0.0618525,0.057658249999999994,5.186365499999997,7.441305,2.2253635000000003,1.808141817857969,2.8579702829267406,6.373283601066012,5.835524183540757,2.32051971164321,1.6499865486615555,0.0661338409011587,1.5899891695625916,6.422458685165406,4,0.2307396071693548,0.372732869442291,0.22008933413271958,0.03928747618817992,0.03889236269694821,0.04501328595604856,1.8721826382578732,2.2733621964666453,1.4232403082788585,8.111969,2.628968,5.928346,0.8475950000000001,0.851865,0.724079,-23.812179,87.85251600000001,-17.62837,6.7208665,-6.864526,-0.634496,0.20562999999999998,0.044649,-0.128145,-26.518109999999997,85.0563845,-19.897367000000003,5.41596,-7.906057000000001,-1.067868,-0.21768600000000002,-1.101593,-1.528457,-41.671314,55.020568000000004,-51.139724,6.78960465173783,6.250204378414137,1.5069764068606413,0.27414861270260127,0.33944571116735744,0.4689912652189294,29.498811039333493,81.51705300354526,23.749538477885398,0.16405768075047839,1.9607079822348452,2.6658110355536997,0.986118750762314,-1.0176064229149742,-0.7563246386231725,-1.2276639608233,-1.6692056142563152,-2.6446615735883974,0.487447645668076,2.4555750622995247,1.5035894833200347,0.15883188931060976,0.3388615917202278,0.45135132005371453,5.162036168277829,8.764173661562452,7.208096844142823,0.2376052072673502,6.029848886587315,2.2607813343506087,0.025227569061977796,0.11482717834316633,0.20371801411423066,26.646617402608445,76.81073997002501,51.95666011454171,6.772084326086956,-5.747626108695654,-0.10097799999999996,-0.01990508695652173,-0.1274158260869565,-29.04364363043478,81.04455065217391,-22.62927126086956
0.4130200000000004,2.0196125,0.9098427499999999,0.0547955,0.07290500000000001,0.08089474999999999,8.162887000000005,9.109960999999998,3.6216694999999994,0.4508409342376427,2.469350383575957,1.370584280643242,8.344674593953595,0.9503762942689766,1.0830744663201664,-0.5952699096414342,0.9718913747581022,2.727052826740918,4,0.31238502874024054,0.4153302550832849,0.4117801640710739,0.0341539660066043,0.0511319853118212,0.06495206189162117,2.5408177062761768,2.6745417546754062,1.1644698822653223,8.289149,4.24753,5.0855440000000005,0.747991,0.869708,0.468945,-21.10625,91.821212,-17.977445,7.144661500000001,-6.4383365,-0.63689,0.2086925,0.039855,-0.133605,-24.172971,87.7623175,-19.984637,6.000175,-7.388883,-1.106178,-0.326877,-0.909576,-1.424059,-42.212501,51.953849,-48.696189000000004,7.216671642460089,5.724452158837558,1.8215891975095309,0.26200372115737686,0.3482274439492635,0.4407527335948742,28.52585372305834,83.12943968733457,24.434272521486037,-0.05350362578901309,1.825674151303532,1.6840627899805907,-0.1912168523395551,-0.2908215707763013,-0.8701137175083022,-1.0231481794353796,-1.499817882335521,-1.9591923708545882,0.48390279029600203,2.8157162785716063,1.8107929503536906,0.13438313580125055,0.3480662927662505,0.41086363942119125,6.667156164477337,10.324939409121637,7.55971444655934,0.23416191045625653,7.928258161413136,3.278971109050623,0.018058827187777345,0.12115014416004122,0.16880893019842666,44.45097132152815,106.60437380203307,57.149282513517996,7.200429687499999,-4.984084104166667,0.19803054166666664,0.010592854166666664,-0.15954322916666666,-27.735777604166667,82.48575252083333,-23.235412437500003
0.9373777499999996,5.570393749999999,1.77299675,0.14021700000000004,0.28356475000000003,0.44748425000000003,22.955301249999998,28.00636999999999,5.148880500000001,-0.5246843622392001,-0.6695527191207673,0.04476743527699201,0.11305117657871433,-1.4456651018603364,-1.3725814602095867,-1.5339335268918768,-0.8569903344927945,0.6394557972828978,4,0.7419141652701531,1.1181971257246568,0.8058113556833075,0.07304632870355249,0.11351840406431843,0.28547431587214445,5.349088698458564,5.616541984364771,2.3289375406273227,9.232513,4.170912,4.60189,0.52295,0.090722,0.5696140000000001,-12.447277,101.201766,-19.897367000000003,7.142267500000001,-6.186932,-0.24900999999999998,0.20589600000000002,-0.0011585,-0.053043,-16.6865655,96.2408935,-22.253635000000003,5.755954,-7.685778999999999,-1.06308,0.006555,-0.40436700000000003,-0.2914,-40.408546,51.232265000000005,-41.889194,7.404764509326262,5.474754774431282,1.8370353039430816,0.26077385582973145,0.1852706050132406,0.27991098622940236,25.66983881450535,87.30610405445296,26.159195270867286,0.46289846752680364,0.9679626985717332,1.228151180698213,0.6556718010138444,-0.4054922173547758,0.39351725467608323,-0.5243321117862424,-0.8907799021066127,-1.444991965165877,0.8952969261010298,3.8016499651050526,1.7537997594307775,0.11337974097322959,0.1582758507483678,0.2678887668032278,10.759538991315775,17.311849271224382,6.562729999973671,0.8015565858859529,14.452542457183247,3.0758135961794526,0.012854965663156635,0.0250512449301196,0.07176439137935418,115.7676793056445,299.7001251895922,43.06942505255442,7.350440861111114,-3.9395935555555557,0.5467038611111111,-0.0963013611111111,0.08115275000000001,-23.306071,85.57251708333334,-25.32260002777777
0.6919597499999997,0.8176612499999991,0.4166125000000003,0.030027250000000005,0.15832750000000004,0.2616590000000001,1.3078649999999996,3.202015750000001,2.0508252500000026,-0.8714398023681511,-1.112556011176512,-0.9013094522335128,-0.9916080565031442,-1.6973550235163697,-1.522134929162494,-0.8994570088663076,-0.8621913784004258,-0.93507930307773,4,0.362082596405656,0.44372875927765043,0.3301340011990791,0.016583647115094434,0.11312403187419595,0.2145992581175934,1.0698168501303893,1.872181896956771,1.293855095272097,6.93875,4.486962999999999,5.032868,0.273941,0.352515,-0.25225,-35.898666,57.726496999999995,-36.30397,6.629882500000001,4.178095,4.652171,0.260891,0.21069949999999998,-0.4420035,-37.161432000000005,51.0518715,-40.143812,5.2483580000000005,2.954596,3.7543,0.209758,0.125876,-0.7004670000000001,-40.047756,49.247917,-41.365581,6.396614166658347,3.99822765076518,4.5474794472082,0.2526579109631242,0.24397131046805484,0.49114992809680835,37.598358084191624,52.37206867422482,39.53697370293912,-0.923619957816233,-0.7146175088694326,-0.7442191444983246,-0.8144828401462884,0.20920335001963553,-0.19597768500941604,-0.7298072532031296,0.9070026175844413,0.8229425277351566,0.6672433624332185,0.6227116151604105,0.4723859045047278,0.025475819656833418,0.09444904750843178,0.1743016382840391,1.5273787816829363,3.2754913845757825,1.941125630429594,0.4452137047111874,0.3877697556556872,0.22314844277474982,0.0006490173871874999,0.008920622575250002,0.03038106110850001,2.3328859427352504,10.728843810430176,3.767968713110689,6.36171825,3.94943725,4.5228775,0.2249475,-0.45918100000000006,-37.5673215,52.269539249999994,-39.48929375
0.5818202500000007,4.1373905,0.688368,0.08941675000000002,0.100336,0.284297,12.131583499999998,16.46107674999999,2.5308057499999954,-0.04613877025422575,-0.16819852565007576,2.5494705274887366,0.7090503988642483,0.3747870203706172,-0.14786485848884867,-1.1411983739087381,-0.13762852025771455,4.257674937132801,4,0.39048035929891145,0.7348154658479489,0.38338165987670814,0.05764802206215332,0.07403374178107723,0.14885696924350872,3.075725760690812,3.075733173701907,1.8113959472991534,9.337862,4.688086,4.563581,0.54106,0.5120399999999999,0.511822,-18.941507,94.707534,-19.548289999999998,7.781552,-5.5500419999999995,-0.2705585,0.2001705,0.035594,-0.1298765,-22.6396105,92.0918005,-21.991827,6.220453,-6.344958,-0.8763219999999999,-0.038718999999999996,-0.531668,-1.059999,-39.506572,51.412662,-41.365581,7.93577233174577,4.853468134717005,1.2742489136525004,0.252291120173928,0.22329636526955865,0.42290666179186903,27.540067884816164,84.91877485611292,24.17384683402865,0.277863859355629,1.1424109458730696,1.852632988967901,0.8043054078983265,-0.5063564360164157,-0.5256508294300221,-0.7373540062235723,-1.1652698879456416,-2.2087875862875346,0.6818518632157945,3.227406278716331,1.2389130652825366,0.1168373950298425,0.22328500530212578,0.40005376936796,6.797117350379127,13.629286366157407,4.989627781943672,0.46492196337085046,10.416151287897597,1.5349055833277707,0.013650976877359465,0.04985619359277034,0.16004301838551294,46.20080427482496,185.75744685072416,24.89638540234413,7.90642526923077,-3.6249140192307694,0.2980011923076923,0.002252365384615382,-0.13713871153846152,-26.688097250000002,83.8179030769231,-23.653297557692305
